"pID","block_num","trial_num","trial_type","resp","rt","stimulus","trial_cond","condition","beta","dot","mean_signal","outlier","dot_between","dot_between_std_noc","dot_within_c","dot_within_std"
"sub-MURIC201",1,1,"rating_alc_react",4,2.68599343299866,"Wine16.jpg","reactivity","control","beta_0020",-9.39484933000702,-0.220656111836433,0,-3.42573392157639,-0.830144069056963,-5.96911540843062,-0.46036162071148
"sub-MURIC201",1,2,"rating_alc_react",2,0.739437758922577,"Wine10.jpg","reactivity","control","beta_0019",-5.10206273077141,-0.155693382024765,0,-3.42573392157639,-0.830144069056963,-1.67632880919502,-0.129285060623289
"sub-MURIC201",1,3,"rating_alc_react",2,1.46303939819336,"shutterstock_531124957.jpg","reactivity","control","beta_0025",-5.52895581747027,0.278729856014252,0,-3.42573392157639,-0.830144069056963,-2.10322189589388,-0.162208731856995
"sub-MURIC201",1,4,"rating_alc_react",2,1.44237220287323,"Liquor26.jpg","reactivity","control","beta_0011",-12.5928542735473,0.249190524220467,0,-3.42573392157639,-0.830144069056963,-9.16712035197093,-0.707004320360442
"sub-MURIC201",2,1,"rating_alc_react",2,1.10779798030853,"Liquor18.jpg","reactivity","control","beta_0010",3.98932805318761,0.266445904970169,0,-3.42573392157639,-0.830144069056963,7.415061974764,0.571878698065903
"sub-MURIC201",2,2,"rating_alc_react",1,0.790497660636902,"Beer24.jpg","reactivity","control","beta_0003",3.48768043956251,-0.630488812923431,0,-3.42573392157639,-0.830144069056963,6.91341436113891,0.533189664158412
"sub-MURIC201",2,3,"rating_alc_react",1,0.84617006778717,"Wine29.jpg","reactivity","control","beta_0022",11.1178725709799,-0.774026870727539,0,-3.42573392157639,-0.830144069056963,14.5436064925563,1.12166004471063
"sub-MURIC201",2,4,"rating_alc_react",1,0.896081924438477,"Beer19.jpg","reactivity","control","beta_0002",5.87049145181745,-0.35819000005722,0,-3.42573392157639,-0.830144069056963,9.29622537339384,0.716961406601444
"sub-MURIC201",4,1,"rating_alc_react",1,0.90458607673645,"shutterstock_506086420.jpg","reactivity","control","beta_0024",6.97851935252848,0.480921477079391,0,-3.42573392157639,-0.830144069056963,10.4042532741049,0.802416869473618
"sub-MURIC201",4,2,"rating_alc_react",2,1.35741424560547,"Liquor_X30.jpg","reactivity","control","beta_0012",-1.20182301485501,-0.665517807006836,0,-3.42573392157639,-0.830144069056963,2.22391090672139,0.171516742311633
"sub-MURIC201",4,3,"rating_alc_react",2,1.42349791526794,"Wine24.jpg","reactivity","control","beta_0021",-4.39812032755201,-0.631406545639038,0,-3.42573392157639,-0.830144069056963,-0.972386405975616,-0.0749942581409127
"sub-MURIC201",4,4,"rating_alc_react",1,1.37333548069,"shutterstock_186172556.jpg","reactivity","control","beta_0023",9.76045044201196,-0.076543726027012,0,-3.42573392157639,-0.830144069056963,13.1861843635884,1.01697031959681
"sub-MURIC201",8,1,"rating_alc_react",1,1.62929105758667,"Liquor25.jpg","reactivity","control","beta_0039",-21.4463045960338,-0.188200891017914,0,-3.42573392157639,-0.830144069056963,-18.0205706744574,-1.38981717628075
"sub-MURIC201",8,2,"rating_alc_react",2,0.925293385982513,"Wine_X36.jpg","reactivity","control","beta_0054",-10.7982811748196,-0.592223525047302,0,-3.42573392157639,-0.830144069056963,-7.37254725324321,-0.568599795789065
"sub-MURIC201",8,3,"rating_alc_react",2,1.16424834728241,"Wine6.jpg","reactivity","control","beta_0052",8.41611301605672,0.007566469721496,0,-3.42573392157639,-0.830144069056963,11.8418469376331,0.913289738162284
"sub-MURIC201",8,4,"rating_alc_react",3,1.29684472084045,"Wine14.jpg","reactivity","control","beta_0049",9.13586474923872,-0.27994692325592,0,-3.42573392157639,-0.830144069056963,12.5615986708151,0.968799818253813
"sub-MURIC201",9,1,"rating_alc_react",3,0.780529320240021,"Wine18.jpg","reactivity","control","beta_0050",-0.69030866071103,-0.719460904598236,0,-3.42573392157639,-0.830144069056963,2.73542526086537,0.210966737994129
"sub-MURIC201",9,2,"rating_alc_react",1,0.894123256206512,"Beer_X37.jpg","reactivity","control","beta_0035",-24.0186502112277,-0.526334345340729,0,-3.42573392157639,-0.830144069056963,-20.5929162896513,-1.58820657159521
"sub-MURIC201",9,3,"rating_alc_react",2,0.86354660987854,"Wine22.jpg","reactivity","control","beta_0051",-19.7677377325382,0.066918358206749,0,-3.42573392157639,-0.830144069056963,-16.3420038109618,-1.26035950812108
"sub-MURIC201",9,4,"rating_alc_react",1,1.19060385227203,"Beer22.jpg","reactivity","control","beta_0033",-17.3813328915853,-0.70837140083313,0,-3.42573392157639,-0.830144069056963,-13.9555989700089,-1.07631059549607
"sub-MURIC201",12,1,"rating_alc_react",1,0.830375194549561,"Beer_X31.jpg","reactivity","control","beta_0034",-19.7253393262892,0.936858594417572,0,-3.42573392157639,-0.830144069056963,-16.2996054047128,-1.25708957653477
"sub-MURIC201",12,2,"rating_alc_react",1,0.814225018024445,"shutterstock_489452248.jpg","reactivity","control","beta_0056",-9.52442887313363,0.050309050828218,0,-3.42573392157639,-0.830144069056963,-6.09869495155723,-0.470355303929695
"sub-MURIC201",12,3,"rating_alc_react",1,0.930205881595612,"shutterstock_219740071.jpg","reactivity","control","beta_0055",-14.9493425479781,0.170960634946823,0,-3.42573392157639,-0.830144069056963,-11.5236086264017,-0.888745949894421
"sub-MURIC201",12,4,"rating_alc_react",3,0.574527382850647,"Wine_X31.jpg","reactivity","control","beta_0053",-30.7422368746166,0.317596405744553,0,-3.42573392157639,-0.830144069056963,-27.3165029530402,-2.1067559782594
"sub-MURIC201",13,1,"rating_alc_react",2,0.900550782680511,"Wine19.jpg","reactivity","control","beta_0085",-9.27064456350531,0.110246576368809,0,-3.42573392157639,-0.830144069056963,-5.84491064192891,-0.450782461373053
"sub-MURIC201",13,2,"rating_alc_react",1,1.71776401996613,"Beer27.jpg","reactivity","control","beta_0065",3.4057249176855,-0.467238575220108,0,-3.42573392157639,-0.830144069056963,6.83145883926189,0.526868932476081
"sub-MURIC201",13,3,"rating_alc_react",1,0.80811619758606,"Liquor_X39.jpg","reactivity","control","beta_0076",4.13721932588208,-0.506780087947845,0,-3.42573392157639,-0.830144069056963,7.56295324745848,0.583284653777624
"sub-MURIC201",13,4,"rating_alc_react",1,0.974762976169586,"shutterstock_629011190.jpg","reactivity","control","beta_0087",-6.78994613985128,1.10200238227844,0,-3.42573392157639,-0.830144069056963,-3.36421221827488,-0.259461257364025
"sub-MURIC201",14,1,"rating_alc_react",1,0.779999852180481,"Beer_X32.jpg","reactivity","control","beta_0066",-12.1687786114368,0.31493929028511,0,-3.42573392157639,-0.830144069056963,-8.74304468986045,-0.674297939974876
"sub-MURIC201",14,2,"rating_alc_react",2,0.847102403640747,"Liquor5.jpg","reactivity","control","beta_0073",-18.1153968474208,-0.272273659706116,0,-3.42573392157639,-0.830144069056963,-14.6896629258444,-1.13292449040201
"sub-MURIC201",14,3,"rating_alc_react",1,0.760535359382629,"Beer20.jpg","reactivity","control","beta_0064",-7.80538448205015,-0.436652094125748,0,-3.42573392157639,-0.830144069056963,-4.37965056047375,-0.337775849889244
"sub-MURIC201",14,4,"rating_alc_react",2,1.49238169193268,"Liquor8.jpg","reactivity","control","beta_0074",-1.91521711860765,-0.246706902980804,0,-3.42573392157639,-0.830144069056963,1.51051680296874,0.116496987567784
"sub-MURIC201",15,1,"rating_alc_react",1,0.975361168384552,"Liquor_X36.jpg","reactivity","control","beta_0075",-2.22767690572602,0.72113436460495,0,-3.42573392157639,-0.830144069056963,1.19805701585037,0.0923988617714874
"sub-MURIC201",15,2,"rating_alc_react",1,0.579902648925781,"Beer_X34.jpg","reactivity","control","beta_0067",10.971294248403,0.294063895940781,0,-3.42573392157639,-0.830144069056963,14.3970281699794,1.11035534886787
"sub-MURIC201",15,3,"rating_alc_react",1,0.732491552829742,"Liquor19.jpg","reactivity","control","beta_0072",-0.862001696175934,0.653886318206787,0,-3.42573392157639,-0.830144069056963,2.56373222540046,0.197725096869238
"sub-MURIC201",15,4,"rating_alc_react",2,0.805665254592896,"Wine7.jpg","reactivity","control","beta_0086",11.0684542632441,-0.047725647687912,0,-3.42573392157639,-0.830144069056963,14.4941881848205,1.11784871075486
"sub-MURIC201",20,1,"rating_alc_react",1,0.757438659667969,"Beer6.jpg","reactivity","control","beta_0097",-4.76872608617876,0.5047886967659,0,-3.42573392157639,-0.830144069056963,-1.34299216460236,-0.103576829596215
"sub-MURIC201",20,2,"rating_alc_react",2,0.846117198467255,"Wine9.jpg","reactivity","control","beta_0116",-21.8979593424017,-0.373677790164948,0,-3.42573392157639,-0.830144069056963,-18.4722254208253,-1.42465056394592
"sub-MURIC201",20,3,"rating_alc_react",1,0.929589927196503,"Beer29.jpg","reactivity","control","beta_0096",-14.886959612842,0.031793978065252,0,-3.42573392157639,-0.830144069056963,-11.4612256912656,-0.883934732962099
"sub-MURIC201",20,4,"rating_alc_react",1,0.644324004650116,"shutterstock_747693556.jpg","reactivity","control","beta_0118",4.97145637178152,-0.017748961225152,0,-3.42573392157639,-0.830144069056963,8.39719029335792,0.647624290763935
"sub-MURIC201",21,1,"rating_alc_react",1,0.516212821006775,"Beer_X33.jpg","reactivity","control","beta_0099",14.7200818814704,-0.199908554553986,0,-3.42573392157639,-0.830144069056963,18.1458158030467,1.39947657242883
"sub-MURIC201",21,2,"rating_alc_react",2,0.874020576477051,"Liquor10.jpg","reactivity","control","beta_0104",10.2485905752844,-0.248880371451378,0,-3.42573392157639,-0.830144069056963,13.6743244968608,1.05461760357631
"sub-MURIC201",21,3,"rating_alc_react",1,0.787076890468597,"shutterstock_354506048.jpg","reactivity","control","beta_0117",2.64295686232564,-0.09020160138607,0,-3.42573392157639,-0.830144069056963,6.06869078390204,0.468041264695282
"sub-MURIC201",21,4,"rating_alc_react",1,0.839488208293915,"Beer16.jpg","reactivity","control","beta_0095",2.08427469298026,0.557556211948395,0,-3.42573392157639,-0.830144069056963,5.51000861455665,0.424953501878837
"sub-MURIC201",23,1,"rating_alc_react",1,1.74666202068329,"Beer7.jpg","reactivity","control","beta_0098",-7.27143080931151,0.151745364069939,0,-3.42573392157639,-0.830144069056963,-3.84569688773512,-0.296595245838663
"sub-MURIC201",23,2,"rating_alc_react",2,1.93032383918762,"Wine5.jpg","reactivity","control","beta_0115",15.2355630748133,-0.735894858837128,0,-3.42573392157639,-0.830144069056963,18.6612969963897,1.43923250632793
"sub-MURIC201",23,3,"rating_alc_react",1,1.56178903579712,"Beer_X36.jpg","reactivity","control","beta_0100",7.80258247596201,-0.52671080827713,0,-3.42573392157639,-0.830144069056963,11.2283163975384,0.865971853606882
"sub-MURIC201",23,4,"rating_alc_react",2,0.957715809345245,"Liquor_X40.jpg","reactivity","control","beta_0105",4.76300359776168,0.245067909359932,0,-3.42573392157639,-0.830144069056963,8.18873751933807,0.631547594248059
"sub-MURIC202",1,1,"rating_alc_react",4,0.969309151172638,"Wine7.jpg","reactivity","mindful attention","beta_0019",-9.59551297574536,0.516379475593567,0,-6.6756835758133,-0.956050632097043,-11.2480228457445,-0.726197573092858
"sub-MURIC202",1,2,"rating_alc_react",2,0.663246631622314,"Liquor19.jpg","reactivity","mindful attention","beta_0012",-14.6864612135124,0.06800452619791,0,-6.6756835758133,-0.956050632097043,-16.3389710835115,-1.05488060527628
"sub-MURIC202",1,3,"rating_alc_react",3,0.754908382892609,"Beer_X34.jpg","reactivity","mindful attention","beta_0006",-7.93084497758793,0.097921960055828,0,-6.6756835758133,-0.956050632097043,-9.5833548475871,-0.618722874930716
"sub-MURIC202",1,4,"rating_alc_react",4,0.613407492637634,"Liquor_X36.jpg","reactivity","mindful attention","beta_0013",-16.2164083262876,0.488403409719467,0,-6.6756835758133,-0.956050632097043,-17.8689181962867,-1.15365742103267
"sub-MURIC202",2,1,"rating_alc_mindful",2,1.34190273284912,"shutterstock_747693556.jpg","regulation","mindful attention","beta_0025",1.92213840394991,0.832605838775635,0,9.98070331581164,1.42937537489444,0.269628533950742,0.0174078226615349
"sub-MURIC202",2,2,"rating_alc_mindful",3,1.39695048332214,"Beer29.jpg","regulation","mindful attention","beta_0003",9.79499927980486,0.724806725978851,0,9.98070331581164,1.42937537489444,8.14248940980569,0.525697371833867
"sub-MURIC202",2,3,"rating_alc_mindful",2,0.863767802715302,"Wine9.jpg","regulation","mindful attention","beta_0020",0.159488699279217,0.528599143028259,0,9.98070331581164,1.42937537489444,-1.49302117071995,-0.0963927941489987
"sub-MURIC202",2,4,"rating_alc_mindful",1,1.25732493400574,"Beer6.jpg","regulation","mindful attention","beta_0004",9.32603979645487,0.150788888335228,0,9.98070331581164,1.42937537489444,7.6735299264557,0.495420296177278
"sub-MURIC202",3,1,"rating_alc_mindful",3,0.864563882350922,"Beer_X38.jpg","regulation","mindful attention","beta_0007",11.5408455201006,0.427077442407608,0,9.98070331581164,1.42937537489444,9.88833565010148,0.638413119310833
"sub-MURIC202",3,2,"rating_alc_mindful",2,0.907811224460602,"shutterstock_194729426.jpg","regulation","mindful attention","beta_0022",27.1274211951791,0.556558728218079,0,9.98070331581164,1.42937537489444,25.4749113251799,1.64471739014119
"sub-MURIC202",3,3,"rating_alc_mindful",2,1.70464825630188,"Wine_X33.jpg","regulation","mindful attention","beta_0021",11.035923540458,0.714339196681976,0,9.98070331581164,1.42937537489444,9.38341367045888,0.605814224265343
"sub-MURIC202",3,4,"rating_alc_mindful",3,0.70503830909729,"shutterstock_54126199.jpg","regulation","mindful attention","beta_0024",-8.0457833352754,0.40075808763504,0,9.98070331581164,1.42937537489444,-9.69829320527457,-0.626143552995883
"sub-MURIC202",6,1,"rating_alc_react",2,0.579432785511017,"Beer16.jpg","reactivity","mindful attention","beta_0002",-10.6466684507358,0.475675851106644,0,-6.6756835758133,-0.956050632097043,-12.299178320735,-0.794062527258572
"sub-MURIC202",6,2,"rating_alc_react",3,0.613300323486328,"shutterstock_354506048.jpg","reactivity","mindful attention","beta_0023",-17.9592116102428,0.491629391908646,0,-6.6756835758133,-0.956050632097043,-19.611721480242,-1.26617670842596
"sub-MURIC202",6,3,"rating_alc_react",3,0.546107769012451,"Liquor10.jpg","reactivity","mindful attention","beta_0011",-16.5562042080113,0.583325028419495,0,-6.6756835758133,-0.956050632097043,-18.2087140780105,-1.17559540498228
"sub-MURIC202",6,4,"rating_alc_react",2,0.479861170053482,"Beer_X33.jpg","reactivity","mindful attention","beta_0005",-1.49124154642163,-0.026128642261028,0,-6.6756835758133,-0.956050632097043,-3.1437514164208,-0.202967639763973
"sub-MURIC202",7,1,"rating_alc_react",3,0.792222678661346,"Liquor_X40.jpg","reactivity","mindful attention","beta_0044",-5.61456608791037,0.169304445385933,0,-6.6756835758133,-0.956050632097043,-7.26707595790954,-0.469178716694369
"sub-MURIC202",7,2,"rating_alc_react",2,0.792094349861145,"Beer_X36.jpg","reactivity","mindful attention","beta_0038",-13.2644640614104,0.294411331415176,0,-6.6756835758133,-0.956050632097043,-14.9169739314096,-0.963073281005773
"sub-MURIC202",7,3,"rating_alc_react",3,0.712571978569031,"Wine5.jpg","reactivity","mindful attention","beta_0053",14.9473153859392,-0.262921690940857,0,-6.6756835758133,-0.956050632097043,13.2948055159401,0.85834245118642
"sub-MURIC202",7,4,"rating_alc_react",2,1.11229872703552,"Beer7.jpg","reactivity","mindful attention","beta_0036",7.73630360158968,-0.034343980252743,0,-6.6756835758133,-0.956050632097043,6.08379373159051,0.392783363233481
"sub-MURIC202",8,1,"rating_alc_mindful",3,1.1936662197113,"Liquor26.jpg","regulation","mindful attention","beta_0041",17.94522423018,0.326111197471619,0,9.98070331581164,1.42937537489444,16.2927143601808,1.05189416751005
"sub-MURIC202",8,2,"rating_alc_mindful",2,1.35983836650848,"shutterstock_531124957.jpg","regulation","mindful attention","beta_0055",5.05523593859873,-0.024968422949314,0,9.98070331581164,1.42937537489444,3.40272606859956,0.219687623932208
"sub-MURIC202",8,3,"rating_alc_mindful",4,0.49599227309227,"Wine10.jpg","regulation","mindful attention","beta_0051",-13.0865601100267,0.047821193933487,0,9.98070331581164,1.42937537489444,-14.7390699800258,-0.951587403042129
"sub-MURIC202",8,4,"rating_alc_mindful",2,0.546912550926208,"Wine16.jpg","regulation","mindful attention","beta_0052",19.9273829406627,0.026264457032084,0,9.98070331581164,1.42937537489444,18.2748730706635,1.17986677787704
"sub-MURIC202",11,1,"rating_alc_react",2,0.628897070884705,"shutterstock_59587495.jpg","reactivity","mindful attention","beta_0056",-18.0512388538328,0.084864214062691,0,-6.6756835758133,-0.956050632097043,-19.703748723832,-1.27211819359806
"sub-MURIC202",11,2,"rating_alc_react",1,0.708344697952271,"Beer14.jpg","reactivity","mindful attention","beta_0035",-33.314405356509,-0.111560679972172,0,-6.6756835758133,-0.956050632097043,-34.9669152265081,-2.25754244317176
"sub-MURIC202",11,3,"rating_alc_react",3,0.407845556735992,"Wine8.jpg","reactivity","mindful attention","beta_0054",-7.25197390433398,0.431591898202896,0,-6.6756835758133,-0.956050632097043,-8.90448377433315,-0.574893436406195
"sub-MURIC202",11,4,"rating_alc_react",3,0.474948555231094,"Beer1.jpg","reactivity","mindful attention","beta_0033",0.99594661296105,0.153345003724098,0,-6.6756835758133,-0.956050632097043,-0.65656325703812,-0.0423891958952956
"sub-MURIC202",12,1,"rating_alc_mindful",3,0.523367166519165,"Beer13.jpg","regulation","mindful attention","beta_0034",10.7016541520267,-0.134063869714737,0,9.98070331581164,1.42937537489444,9.04914428202753,0.584233043113145
"sub-MURIC202",12,2,"rating_alc_mindful",2,1.20802390575409,"Beer_X35.jpg","regulation","mindful attention","beta_0037",9.97189636108557,-0.34758934378624,0,9.98070331581164,1.42937537489444,8.3193864910864,0.537118244006247
"sub-MURIC202",12,3,"rating_alc_mindful",1,0.462463408708572,"Liquor_X32.jpg","regulation","mindful attention","beta_0043",6.61765011936238,-0.04027383774519,0,9.98070331581164,1.42937537489444,4.96514024936321,0.320560586389399
"sub-MURIC202",12,4,"rating_alc_mindful",2,0.791264593601227,"Liquor_X31.jpg","regulation","mindful attention","beta_0042",12.9894225136639,-0.082940086722374,0,9.98070331581164,1.42937537489444,11.3369126436648,0.731936497738341
"sub-MURIC202",14,1,"rating_alc_react",3,0.896925568580627,"Beer22.jpg","reactivity","mindful attention","beta_0065",0.534369894037764,0.52884316444397,0,-6.6756835758133,-0.956050632097043,-1.11813997596141,-0.0721896237282698
"sub-MURIC202",14,2,"rating_alc_react",4,0.908636868000031,"Wine22.jpg","reactivity","mindful attention","beta_0084",5.84845814837985,-0.228582814335823,0,-6.6756835758133,-0.956050632097043,4.19594827838068,0.270899828207231
"sub-MURIC202",14,3,"rating_alc_react",2,1.74025022983551,"Beer_X37.jpg","reactivity","mindful attention","beta_0068",-0.245680327985532,-0.150424644351006,0,-6.6756835758133,-0.956050632097043,-1.8981901979847,-0.12255141494193
"sub-MURIC202",14,4,"rating_alc_react",3,0.630932569503784,"Wine18.jpg","reactivity","mindful attention","beta_0082",5.16612020735202,-0.268677592277527,0,-6.6756835758133,-0.956050632097043,3.51361033735285,0.226846560926479
"sub-MURIC202",15,1,"rating_alc_mindful",2,0.790955007076263,"Wine14.jpg","regulation","mindful attention","beta_0081",16.8546622294933,0.118045173585415,0,9.98070331581164,1.42937537489444,15.2021523594942,0.981485039695595
"sub-MURIC202",15,2,"rating_alc_mindful",1,1.8060108423233,"Wine6.jpg","regulation","mindful attention","beta_0085",27.1599333387155,-0.440490573644638,0,9.98070331581164,1.42937537489444,25.5074234687164,1.64681644702043
"sub-MURIC202",15,3,"rating_alc_mindful",2,0.974607527256012,"Wine_X36.jpg","regulation","mindful attention","beta_0086",6.79803737367474,0.229200601577759,0,9.98070331581164,1.42937537489444,5.14552750367557,0.332206791957703
"sub-MURIC202",15,4,"rating_alc_mindful",1,0.485857039690018,"Liquor25.jpg","regulation","mindful attention","beta_0072",-1.15931572342299,0.213821992278099,0,9.98070331581164,1.42937537489444,-2.81182559342216,-0.181537764450407
"sub-MURIC202",16,1,"rating_alc_react",2,0.809447407722473,"shutterstock_629011190.jpg","reactivity","mindful attention","beta_0087",-4.5228668022082,0.318240493535995,0,-6.6756835758133,-0.956050632097043,-6.17537667220737,-0.398696163209509
"sub-MURIC202",16,2,"rating_alc_react",3,0.614492654800415,"Liquor_X39.jpg","reactivity","mindful attention","beta_0075",7.31286989080737,0.142473086714745,0,-6.6756835758133,-0.956050632097043,5.6603600208082,0.365445533523067
"sub-MURIC202",16,3,"rating_alc_react",2,0.596252799034119,"Beer27.jpg","reactivity","mindful attention","beta_0066",-12.3899722872723,-0.105348773300648,0,-6.6756835758133,-0.956050632097043,-14.0424821572715,-0.906614131448742
"sub-MURIC202",16,4,"rating_alc_react",1,0.547386288642883,"Wine19.jpg","reactivity","mindful attention","beta_0083",5.60319948463002,-0.313060969114304,0,-6.6756835758133,-0.956050632097043,3.95068961463085,0.255065379003342
"sub-MURIC202",18,1,"rating_alc_mindful",2,0.773496389389038,"Liquor8.jpg","regulation","mindful attention","beta_0074",2.08379979042091,0.155701994895935,0,9.98070331581164,1.42937537489444,0.431289920421743,0.0278450442184313
"sub-MURIC202",18,2,"rating_alc_mindful",2,0.805503249168396,"Beer20.jpg","regulation","mindful attention","beta_0064",26.2913798098556,-0.023750932887197,0,9.98070331581164,1.42937537489444,24.6388699398564,1.59074068389216
"sub-MURIC202",18,3,"rating_alc_mindful",3,0.889689922332764,"Liquor5.jpg","regulation","mindful attention","beta_0073",19.7332078181556,0.192097365856171,0,9.98070331581164,1.42937537489444,18.0806979481564,1.16733039662555
"sub-MURIC202",18,4,"rating_alc_mindful",2,0.940878331661224,"Beer_X32.jpg","regulation","mindful attention","beta_0067",22.9941877165797,0.256927132606506,0,9.98070331581164,1.42937537489444,21.3416778465805,1.377866570015
"sub-MURIC202",19,1,"rating_alc_mindful",2,0.713876366615295,"Wine_X32.jpg","regulation","mindful attention","beta_0114",-11.4419396224565,-0.210121273994446,0,9.98070331581164,1.42937537489444,-13.0944494924557,-0.845407017110204
"sub-MURIC202",19,2,"rating_alc_mindful",1,0.596087574958801,"Beer12.jpg","regulation","mindful attention","beta_0095",4.99941487948475,0.308050721883774,0,9.98070331581164,1.42937537489444,3.34690500948558,0.216083691204477
"sub-MURIC202",19,3,"rating_alc_mindful",3,1.05785155296326,"Liquor_X33.jpg","regulation","mindful attention","beta_0104",-4.68912527739896,0.238709017634392,0,9.98070331581164,1.42937537489444,-6.34163514739813,-0.409430183120868
"sub-MURIC202",19,4,"rating_alc_mindful",1,0.591903388500214,"Beer9.jpg","regulation","mindful attention","beta_0099",14.3560906119373,0.372462898492813,0,9.98070331581164,1.42937537489444,12.7035807419381,0.820171654245426
"sub-MURIC202",21,1,"rating_alc_react",3,1.70339620113373,"Liquor_X42.jpg","reactivity","mindful attention","beta_0106",4.34721278263888,0.114622086286545,0,-6.6756835758133,-0.956050632097043,2.69470291263971,0.173976061588954
"sub-MURIC202",21,2,"rating_alc_react",2,0.480128884315491,"shutterstock_93461314.jpg","reactivity","mindful attention","beta_0118",8.94527215687686,-0.061999645084143,0,-6.6756835758133,-0.956050632097043,7.29276228687769,0.470837083681541
"sub-MURIC202",21,3,"rating_alc_react",1,0.499692171812057,"shutterstock_650326123.jpg","reactivity","mindful attention","beta_0117",6.6721043979515,-0.110554099082947,0,-6.6756835758133,-0.956050632097043,5.01959452795233,0.324076276702111
"sub-MURIC202",21,4,"rating_alc_react",4,0.429413467645645,"Liquor_X37.jpg","reactivity","mindful attention","beta_0105",-37.482756330252,-0.209772869944572,0,-6.6756835758133,-0.956050632097043,-39.1352662002512,-2.52666052751818
"sub-MURIC202",22,1,"rating_alc_react",2,1.45767247676849,"Beer19.jpg","reactivity","mindful attention","beta_0096",-12.5760812034175,0.361885607242584,0,-6.6756835758133,-0.956050632097043,-14.2285910734167,-0.918629740332995
"sub-MURIC202",22,2,"rating_alc_react",3,0.825167834758759,"Wine29.jpg","reactivity","mindful attention","beta_0113",-35.9423451163796,0.136155098676682,0,-6.6756835758133,-0.956050632097043,-37.5948549863787,-2.42720812593434
"sub-MURIC202",22,3,"rating_alc_react",2,1.56361556053162,"Beer24.jpg","reactivity","mindful attention","beta_0097",-5.94033771040873,-0.092909790575504,0,-6.6756835758133,-0.956050632097043,-7.5928475804079,-0.490211263025864
"sub-MURIC202",22,4,"rating_alc_react",3,0.62951934337616,"Liquor18.jpg","reactivity","mindful attention","beta_0103",-0.051805638724675,0.445717930793762,0,-6.6756835758133,-0.956050632097043,-1.70431550872385,-0.110034430334396
"sub-MURIC202",24,1,"rating_alc_mindful",3,1.21554589271545,"shutterstock_227045194.jpg","regulation","mindful attention","beta_0115",27.2090910335941,0.100407287478447,0,9.98070331581164,1.42937537489444,25.556581163595,1.6499901780138
"sub-MURIC202",24,2,"rating_alc_mindful",2,0.641009271144867,"shutterstock_518689462.jpg","regulation","mindful attention","beta_0116",22.930416194883,-0.196276620030403,0,9.98070331581164,1.42937537489444,21.2779063248838,1.37374933759792
"sub-MURIC202",24,3,"rating_alc_mindful",2,0.955798447132111,"Beer30.jpg","regulation","mindful attention","beta_0098",17.6091113499876,-0.35115572810173,0,9.98070331581164,1.42937537489444,15.9566014799884,1.03019396639663
"sub-MURIC202",24,4,"rating_alc_mindful",1,0.49678036570549,"Liquor16.jpg","regulation","mindful attention","beta_0102",-5.32942466303572,0.247440069913864,0,9.98070331581164,1.42937537489444,-6.98193453303489,-0.450769347014741
"sub-MURIC203",2,1,"rating_alc_react",1,0.612734854221344,"Wine10.jpg","reactivity","control","beta_0020",-8.8992797970043,0.232762098312378,0,-4.05780347901651,-0.98331089588948,-4.84147631798779,-0.373393665875042
"sub-MURIC203",2,2,"rating_alc_react",1,0.496874243021011,"Wine16.jpg","reactivity","control","beta_0021",-6.88073822375836,-0.058856070041656,0,-4.05780347901651,-0.98331089588948,-2.82293474474185,-0.217715813035986
"sub-MURIC203",2,3,"rating_alc_react",2,0.546736776828766,"Liquor26.jpg","reactivity","control","beta_0011",-7.48880028773425,-0.007469607982785,0,-4.05780347901651,-0.98331089588948,-3.43099680871774,-0.264611947238676
"sub-MURIC203",2,4,"rating_alc_react",1,0.791918992996216,"shutterstock_531124957.jpg","reactivity","control","beta_0023",-3.95486531728875,-0.226498037576675,0,-4.05780347901651,-0.98331089588948,0.10293816172776,0.0079389952653824
"sub-MURIC203",5,1,"rating_alc_react",3,0.6631098985672,"Beer24.jpg","reactivity","control","beta_0003",-12.732391156705,0.162410005927086,0,-4.05780347901651,-0.98331089588948,-8.67458767768848,-0.66901826636896
"sub-MURIC203",5,2,"rating_alc_react",1,0.424931108951569,"Liquor18.jpg","reactivity","control","beta_0010",-7.15755636430304,0.250321269035339,0,-4.05780347901651,-0.98331089588948,-3.09975288528653,-0.239065115085583
"sub-MURIC203",5,3,"rating_alc_react",3,1.07517111301422,"Beer19.jpg","reactivity","control","beta_0002",10.251199238888,1.21193087100983,0,-4.05780347901651,-0.98331089588948,14.3090027179045,1.10356648033237
"sub-MURIC203",5,4,"rating_alc_react",1,1.03093993663788,"Wine29.jpg","reactivity","control","beta_0022",-10.6864897798312,-0.158669531345367,0,-4.05780347901651,-0.98331089588948,-6.62868630081469,-0.511230318033564
"sub-MURIC203",6,1,"rating_alc_react",3,0.615908086299896,"shutterstock_650326123.jpg","reactivity","control","beta_0024",-1.83649851237591,-0.32987916469574,0,-4.05780347901651,-0.98331089588948,2.2213049666406,0.171315761979209
"sub-MURIC203",6,2,"rating_alc_react",3,0.639767348766327,"Liquor_X37.jpg","reactivity","control","beta_0012",5.4339569645199,0.798317551612854,0,-4.05780347901651,-0.98331089588948,9.49176044353641,0.732041839067137
"sub-MURIC203",6,3,"rating_alc_react",2,0.823790729045868,"Liquor_X42.jpg","reactivity","control","beta_0013",-14.3138361570116,-0.090296007692814,0,-4.05780347901651,-0.98331089588948,-10.2560326779951,-0.790985515046874
"sub-MURIC203",6,4,"rating_alc_react",1,1.20651185512543,"shutterstock_93461314.jpg","reactivity","control","beta_0025",0.15719307156244,-0.24359530210495,0,-4.05780347901651,-0.98331089588948,4.21499655057895,0.325077086058216
"sub-MURIC203",7,1,"rating_alc_react",1,0.580150544643402,"Wine5.jpg","reactivity","control","beta_0051",-1.3592404051976,-0.036866117268801,0,-4.05780347901651,-0.98331089588948,2.69856307381891,0.208123781373169
"sub-MURIC203",7,2,"rating_alc_react",3,0.863271534442902,"Beer7.jpg","reactivity","control","beta_0035",-8.51081455417757,-0.216070771217346,0,-4.05780347901651,-0.98331089588948,-4.45301107516106,-0.343433700864948
"sub-MURIC203",7,3,"rating_alc_react",2,0.946440756320953,"Liquor_X40.jpg","reactivity","control","beta_0042",2.145836383243,0.092427909374237,0,-4.05780347901651,-0.98331089588948,6.20363986225951,0.478449067556393
"sub-MURIC203",7,4,"rating_alc_react",3,0.887343406677246,"Beer_X36.jpg","reactivity","control","beta_0037",8.22390788438637,0.528748273849487,0,-4.05780347901651,-0.98331089588948,12.2817113634029,0.947213810002927
"sub-MURIC203",9,1,"rating_alc_react",2,1.01211214065552,"shutterstock_489452248.jpg","reactivity","control","beta_0055",-4.2333845390619,-0.083330035209656,0,-4.05780347901651,-0.98331089588948,-0.175581060045386,-0.0135415008486132
"sub-MURIC203",9,2,"rating_alc_react",3,0.696176469326019,"Beer_X31.jpg","reactivity","control","beta_0036",-7.8633412761398,0.115710876882076,0,-4.05780347901651,-0.98331089588948,-3.80553779712329,-0.293498019067968
"sub-MURIC203",9,3,"rating_alc_react",1,0.713457703590393,"Wine_X31.jpg","reactivity","control","beta_0053",-15.5471484496676,0.304237693548203,0,-4.05780347901651,-0.98331089588948,-11.4893449706511,-0.886103402211296
"sub-MURIC203",9,4,"rating_alc_react",3,0.913466393947601,"shutterstock_219740071.jpg","reactivity","control","beta_0054",9.57294405469235,-0.383662819862366,0,-4.05780347901651,-0.98331089588948,13.6307475337089,1.05125677705351
"sub-MURIC203",10,1,"rating_alc_react",1,0.891451358795166,"Wine8.jpg","reactivity","control","beta_0052",15.4049899588592,0.014885856769979,0,-4.05780347901651,-0.98331089588948,19.4627934378757,1.50104705933118
"sub-MURIC203",10,2,"rating_alc_react",3,0.662959694862366,"Beer1.jpg","reactivity","control","beta_0033",-14.0937288266282,-0.048534203320742,0,-4.05780347901651,-0.98331089588948,-10.0359253476117,-0.774009973377389
"sub-MURIC203",10,3,"rating_alc_react",3,0.812453866004944,"shutterstock_59587495.jpg","reactivity","control","beta_0056",-8.65298577857834,0.140439182519913,0,-4.05780347901651,-0.98331089588948,-4.59518229956183,-0.354398503989919
"sub-MURIC203",10,4,"rating_alc_react",3,0.790830612182617,"Beer14.jpg","reactivity","control","beta_0034",-4.25785186874506,0.414181500673294,0,-4.05780347901651,-0.98331089588948,-0.200048389728545,-0.0154285173957406
"sub-MURIC203",14,1,"rating_alc_react",1,0.597003877162933,"Liquor_X30.jpg","reactivity","control","beta_0068",-7.96884556519819,0.634121358394623,0,-4.05780347901651,-0.98331089588948,-3.91104208618168,-0.301634924150141
"sub-MURIC203",14,2,"rating_alc_react",1,1.27924072742462,"shutterstock_506086420.jpg","reactivity","control","beta_0086",-5.15725890970811,0.18936850130558,0,-4.05780347901651,-0.98331089588948,-1.0994554306916,-0.0847943203206211
"sub-MURIC203",14,3,"rating_alc_react",3,0.610051274299622,"shutterstock_186172556.jpg","reactivity","control","beta_0084",-1.6288498596452,0.11069917678833,0,-4.05780347901651,-0.98331089588948,2.42895361937131,0.187330441503523
"sub-MURIC203",14,4,"rating_alc_react",1,0.779277861118317,"Wine24.jpg","reactivity","control","beta_0081",-12.9802510545714,0.606094717979431,0,-4.05780347901651,-0.98331089588948,-8.92244757555488,-0.688134195025658
"sub-MURIC203",15,1,"rating_alc_react",3,0.779722511768341,"Beer_X34.jpg","reactivity","control","beta_0064",-1.1856569029632,0.585228800773621,0,-4.05780347901651,-0.98331089588948,2.87214657605331,0.22151122271909
"sub-MURIC203",15,2,"rating_alc_react",3,0.696931958198547,"Liquor_X36.jpg","reactivity","control","beta_0069",-0.361184656884376,0.321529984474182,0,-4.05780347901651,-0.98331089588948,3.69661882213214,0.285097759997362
"sub-MURIC203",15,3,"rating_alc_react",1,0.992248475551605,"Wine7.jpg","reactivity","control","beta_0082",15.3021921559057,0.441434741020203,0,-4.05780347901651,-0.98331089588948,19.3599956349222,1.49311888908565
"sub-MURIC203",15,4,"rating_alc_react",2,0.77406108379364,"Liquor19.jpg","reactivity","control","beta_0067",-11.2087808491243,0.038687858730555,0,-4.05780347901651,-0.98331089588948,-7.15097737010783,-0.551511456307977
"sub-MURIC203",17,1,"rating_alc_react",1,1.09071815013885,"Wine_X33.jpg","reactivity","control","beta_0083",-17.0957107732535,-0.07072402536869,0,-4.05780347901651,-0.98331089588948,-13.037907294237,-1.0055346097319
"sub-MURIC203",17,2,"rating_alc_react",1,0.9869105219841,"shutterstock_54126199.jpg","reactivity","control","beta_0087",19.0614629264468,0.150580629706383,0,-4.05780347901651,-0.98331089588948,23.1192664054634,1.78304861337534
"sub-MURIC203",17,3,"rating_alc_react",3,0.645085752010345,"Beer_X38.jpg","reactivity","control","beta_0065",-3.00127434687673,0.14332902431488,0,-4.05780347901651,-0.98331089588948,1.05652913213978,0.0814836756069089
"sub-MURIC203",17,4,"rating_alc_react",1,0.774289548397064,"shutterstock_194729426.jpg","reactivity","control","beta_0085",5.45010865423973,0.59555858373642,0,-4.05780347901651,-0.98331089588948,9.50791213325624,0.733287520805196
"sub-MURIC203",19,1,"rating_alc_react",2,0.313098788261414,"Liquor_X33.jpg","reactivity","control","beta_0108",-0.960276243607683,0.114980705082417,0,-4.05780347901651,-0.98331089588948,3.09752723540883,0.238893464227
"sub-MURIC203",19,2,"rating_alc_react",3,0.529978334903717,"Beer9.jpg","reactivity","control","beta_0098",5.51362364929034,0.959381818771362,0,-4.05780347901651,-0.98331089588948,9.57142712830685,0.738186046643662
"sub-MURIC203",19,3,"rating_alc_react",1,0.529541730880737,"Wine_X32.jpg","reactivity","control","beta_0118",-5.51633211778664,0.222104951739311,0,-4.05780347901651,-0.98331089588948,-1.45852863877013,-0.112487456189904
"sub-MURIC203",19,4,"rating_alc_react",3,0.925453305244446,"Beer12.jpg","reactivity","control","beta_0095",-4.26154777278727,-0.166737422347069,0,-4.05780347901651,-0.98331089588948,-0.203744293770757,-0.0157135600291035
"sub-MURIC203",20,1,"rating_alc_react",1,1.21271109580994,"Liquor5.jpg","reactivity","control","beta_0106",-18.5949994982123,0.093922518193722,0,-4.05780347901651,-0.98331089588948,-14.5371960191957,-1.12116564383146
"sub-MURIC203",20,2,"rating_alc_react",3,0.379390031099319,"Beer_X32.jpg","reactivity","control","beta_0099",-10.0994996689867,1.2682044506073,0,-4.05780347901651,-0.98331089588948,-6.04169618997018,-0.465959335604857
"sub-MURIC203",20,3,"rating_alc_react",2,0.514282822608948,"Liquor8.jpg","reactivity","control","beta_0107",3.33247119356237,0.663118302822113,0,-4.05780347901651,-0.98331089588948,7.39027467257888,0.569967003982908
"sub-MURIC203",20,4,"rating_alc_react",2,0.831185579299927,"Beer20.jpg","reactivity","control","beta_0096",-15.4687732959753,0.181802615523338,0,-4.05780347901651,-0.98331089588948,-11.4109698169588,-0.880058802583289
"sub-MURIC203",22,1,"rating_alc_react",3,0.708751201629639,"Beer_X37.jpg","reactivity","control","beta_0100",-3.72243206747929,-0.390973091125488,0,-4.05780347901651,-0.98331089588948,0.335371411537223,0.0258651602442655
"sub-MURIC203",22,2,"rating_alc_react",1,0.837968707084656,"Wine18.jpg","reactivity","control","beta_0116",-8.46478948311933,0.135876849293709,0,-4.05780347901651,-0.98331089588948,-4.40698600410282,-0.339884066646818
"sub-MURIC203",22,3,"rating_alc_react",3,0.746673762798309,"Beer22.jpg","reactivity","control","beta_0097",-20.1730179086197,0.04231259226799,0,-4.05780347901651,-0.98331089588948,-16.1152144296032,-1.24286862044031
"sub-MURIC203",22,4,"rating_alc_react",1,0.746618032455444,"Wine22.jpg","reactivity","control","beta_0117",-8.30602085938115,-0.130477219820023,0,-4.05780347901651,-0.98331089588948,-4.24821738036464,-0.327639206907801
"sub-MURIC205",2,1,"rating_alc_friend3",1,0.969698488712311,"Liquor25.jpg","regulation","perspective-taking","beta_0011",-10.0618296238842,0.217130854725838,0,-3.19487088082312,-0.585513240482652,-8.03820955282011,-0.653362590690303
"sub-MURIC205",2,2,"rating_alc_friend3",2,1.14256393909454,"Wine_X36.jpg","regulation","perspective-taking","beta_0022",-11.8180837282494,0.716122090816498,0,-3.19487088082312,-0.585513240482652,-9.79446365718535,-0.796114620728631
"sub-MURIC205",2,3,"rating_alc_friend3",1,1.42063438892365,"Wine14.jpg","regulation","perspective-taking","beta_0018",-5.80287622296153,0.603752791881561,0,-3.19487088082312,-0.585513240482652,-3.77925615189749,-0.307185894328882
"sub-MURIC205",2,4,"rating_alc_friend3",1,1.38531112670898,"Wine6.jpg","regulation","perspective-taking","beta_0020",7.9491637186971,0.751809060573578,0,-3.19487088082312,-0.585513240482652,9.97278378976115,0.810608856419599
"sub-MURIC205",3,1,"rating_alc_react",5,1.36562967300415,"Liquor_X37.jpg","reactivity","perspective-taking","beta_0013",-6.9728813366149,-0.028591360896826,0,-0.801445313054578,-0.146878186887891,-4.94926126555085,-0.40228637250804
"sub-MURIC205",3,2,"rating_alc_react",5,0.84450763463974,"shutterstock_650326123.jpg","reactivity","perspective-taking","beta_0024",-4.93297920924947,0.444261908531189,0,-0.801445313054578,-0.146878186887891,-2.90935913818542,-0.236478834158589
"sub-MURIC205",3,3,"rating_alc_react",3,1.0547730922699,"Liquor_X42.jpg","reactivity","perspective-taking","beta_0015",-0.71921373564185,0.453727692365646,0,-0.801445313054578,-0.146878186887891,1.3044063354222,0.106024892362415
"sub-MURIC205",3,4,"rating_alc_react",2,1.21063137054443,"shutterstock_93461314.jpg","reactivity","perspective-taking","beta_0025",-3.41098454797609,0.364144563674927,0,-0.801445313054578,-0.146878186887891,-1.38736447691204,-0.112767904706955
"sub-MURIC205",6,1,"rating_alc_react",3,1.05300557613373,"Beer9.jpg","reactivity","perspective-taking","beta_0005",-7.34528349955152,0.119334526360035,0,-0.801445313054578,-0.146878186887891,-5.32166342848747,-0.432556004116434
"sub-MURIC205",6,2,"rating_alc_react",3,0.937395215034485,"Liquor_X33.jpg","reactivity","perspective-taking","beta_0012",10.4104055308887,0.104180857539177,0,-0.801445313054578,-0.146878186887891,12.4340256019528,1.01066377115676
"sub-MURIC205",6,3,"rating_alc_react",2,0.772911906242371,"Wine_X32.jpg","reactivity","perspective-taking","beta_0021",0.716340238088564,0.521424174308777,0,-0.801445313054578,-0.146878186887891,2.73996030915261,0.222709740796505
"sub-MURIC205",6,4,"rating_alc_react",2,0.568559050559998,"Beer12.jpg","reactivity","perspective-taking","beta_0002",-10.7214963554692,0.365003347396851,0,-0.801445313054578,-0.146878186887891,-8.69787628440518,-0.706981691051952
"sub-MURIC205",7,1,"rating_alc_friend3",1,0.660108864307404,"Liquor16.jpg","regulation","perspective-taking","beta_0037",-0.277916982457905,0.100301265716553,0,-3.19487088082312,-0.585513240482652,1.74570308860614,0.14189442127042
"sub-MURIC205",7,2,"rating_alc_friend3",1,0.739319980144501,"Beer30.jpg","regulation","perspective-taking","beta_0033",-8.65275839863239,-0.246716648340225,0,-3.19487088082312,-0.585513240482652,-6.62913832756835,-0.538830315791516
"sub-MURIC205",7,3,"rating_alc_friend3",1,0.838400542736053,"shutterstock_227045194.jpg","regulation","perspective-taking","beta_0053",-5.78979365172053,0.59608668088913,0,-3.19487088082312,-0.585513240482652,-3.76617358065648,-0.306122515403172
"sub-MURIC205",7,4,"rating_alc_friend3",2,1.01089477539062,"shutterstock_518689462.jpg","regulation","perspective-taking","beta_0055",9.761691753444,-0.271679252386093,0,-3.19487088082312,-0.585513240482652,11.785311824508,0.957934949960612
"sub-MURIC205",9,1,"rating_alc_react",4,0.786286592483521,"Liquor_X36.jpg","reactivity","perspective-taking","beta_0041",-21.0400849287045,1.36097276210785,0,-0.801445313054578,-0.146878186887891,-19.0164648576405,-1.54569828809701
"sub-MURIC205",9,2,"rating_alc_react",2,0.590239524841309,"Beer_X34.jpg","reactivity","perspective-taking","beta_0034",9.1031375056842,0.108329430222511,0,-0.801445313054578,-0.146878186887891,11.1267575767482,0.904406274625755
"sub-MURIC205",9,3,"rating_alc_react",1,0.722335338592529,"Wine7.jpg","reactivity","perspective-taking","beta_0051",-1.28343464564237,-0.108256787061691,0,-0.801445313054578,-0.146878186887891,0.740185425421678,0.0601638292665613
"sub-MURIC205",9,4,"rating_alc_react",4,0.939797103404999,"Liquor19.jpg","reactivity","perspective-taking","beta_0038",-4.1264566419903,-0.055256623774767,0,-0.801445313054578,-0.146878186887891,-2.10283657092626,-0.1709229823819
"sub-MURIC205",10,1,"rating_alc_friend3",1,0.542866230010986,"Wine16.jpg","regulation","perspective-taking","beta_0049",0.519801087790126,-1.76089119911194,0,-3.19487088082312,-0.585513240482652,2.54342115885417,0.206734624998981
"sub-MURIC205",10,2,"rating_alc_friend3",1,1.11020421981812,"Wine10.jpg","regulation","perspective-taking","beta_0048",7.8359068336009,0.305147260427475,0,-3.19487088082312,-0.585513240482652,9.85952690466494,0.801403098424149
"sub-MURIC205",10,3,"rating_alc_friend3",2,0.556735038757324,"Liquor26.jpg","regulation","perspective-taking","beta_0039",-8.30330955717612,-0.164779469370842,0,-3.19487088082312,-0.585513240482652,-6.27968948611207,-0.51042637846352
"sub-MURIC205",10,4,"rating_alc_friend3",2,0.640273571014404,"shutterstock_531124957.jpg","regulation","perspective-taking","beta_0056",-2.99232140854888,0.711016118526459,0,-3.19487088082312,-0.585513240482652,-0.968701337484827,-0.0787380835626758
"sub-MURIC205",17,1,"rating_alc_friend4",1,0.540942907333374,"Beer_X32.jpg","regulation","perspective-taking","beta_0068",-0.665697605083241,0.937346935272217,0,-3.19487088082312,-0.585513240482652,1.35792246598081,0.110374796091067
"sub-MURIC205",17,2,"rating_alc_friend4",2,0.675668179988861,"Liquor5.jpg","regulation","perspective-taking","beta_0073",-8.4390790437322,0.149183362722397,0,-3.19487088082312,-0.585513240482652,-6.41545897266815,-0.52146200808851
"sub-MURIC205",17,3,"rating_alc_friend4",1,1.36122500896454,"Liquor8.jpg","regulation","perspective-taking","beta_0074",3.19540369278549,-0.259749352931976,0,-3.19487088082312,-0.585513240482652,5.21902376384954,0.424213236146184
"sub-MURIC205",17,4,"rating_alc_friend4",1,1.30435228347778,"Beer20.jpg","regulation","perspective-taking","beta_0065",-1.06190214995246,0.644118845462799,0,-3.19487088082312,-0.585513240482652,0.961717921111585,0.0781704567816733
"sub-MURIC205",18,1,"rating_alc_react",2,0.620370447635651,"shutterstock_54126199.jpg","reactivity","perspective-taking","beta_0087",-9.31207908632522,0.195095807313919,0,-0.801445313054578,-0.146878186887891,-7.28845901526117,-0.592421288977275
"sub-MURIC205",18,2,"rating_alc_react",2,0.782552540302277,"Wine_X33.jpg","reactivity","perspective-taking","beta_0083",-7.98447562253034,0.283371865749359,0,-0.801445313054578,-0.146878186887891,-5.96085555146629,-0.484510885197104
"sub-MURIC205",18,3,"rating_alc_react",2,1.75274014472961,"Beer_X38.jpg","reactivity","perspective-taking","beta_0069",7.71719641069706,-0.494879275560379,0,-0.801445313054578,-0.146878186887891,9.7408164817611,0.791754065397487
"sub-MURIC205",18,4,"rating_alc_react",2,0.572327136993408,"shutterstock_194729426.jpg","reactivity","perspective-taking","beta_0084",-0.993825336317256,0.170701548457146,0,-0.801445313054578,-0.146878186887891,1.02979473474679,0.0837038834770541
"sub-MURIC205",19,1,"rating_alc_react",3,1.31090927124023,"Beer1.jpg","reactivity","perspective-taking",NA,NA,NA,NA,-0.801445313054578,-0.146878186887891,NA,NA
"sub-MURIC205",19,2,"rating_alc_react",1,0.594609498977661,"Wine8.jpg","reactivity","perspective-taking","beta_0114",-16.5468356714096,0.623447418212891,0,-0.801445313054578,-0.146878186887891,-14.5232156003455,-1.18047753140082
"sub-MURIC205",19,3,"rating_alc_react",3,0.628004252910614,"shutterstock_59587495.jpg","reactivity","perspective-taking","beta_0116",13.911422814932,0.642007529735565,0,-0.801445313054578,-0.146878186887891,15.9350428859961,1.29523382468958
"sub-MURIC205",19,4,"rating_alc_react",3,1.01084017753601,"Beer14.jpg","reactivity","perspective-taking","beta_0097",17.6594274300313,-1.41570854187012,0,-0.801445313054578,-0.146878186887891,19.6830475010954,1.59987952833155
"sub-MURIC205",22,1,"rating_alc_friend4",1,0.575340509414673,"Liquor_X31.jpg","regulation","perspective-taking","beta_0106",-9.87688940934471,-0.179483503103256,0,-3.19487088082312,-0.585513240482652,-7.85326933828066,-0.638330260803865
"sub-MURIC205",22,2,"rating_alc_friend4",1,1.1042332649231,"Liquor_X32.jpg","regulation","perspective-taking","beta_0107",7.49816554251383,-1.81981670856476,0,-3.19487088082312,-0.585513240482652,9.52178561357787,0.773950775431361
"sub-MURIC205",22,3,"rating_alc_friend4",1,0.81859278678894,"Beer13.jpg","regulation","perspective-taking","beta_0096",-11.2744581442843,0.790809988975525,0,-3.19487088082312,-0.585513240482652,-9.25083807322023,-0.751927589080474
"sub-MURIC205",22,4,"rating_alc_friend4",1,0.63830691576004,"Beer_X35.jpg","regulation","perspective-taking","beta_0102",6.95142486192517,0.163047552108765,0,-3.19487088082312,-0.585513240482652,8.97504493298922,0.729510542173215
"sub-MURIC205",23,1,"rating_alc_friend4",1,0.639671683311462,"Beer6.jpg","regulation","perspective-taking","beta_0101",-12.5470775218676,0.887681782245636,0,-3.19487088082312,-0.585513240482652,-10.5234574508036,-0.855368770606877
"sub-MURIC205",23,2,"rating_alc_friend4",1,0.670708060264587,"Wine9.jpg","regulation","perspective-taking","beta_0115",-1.31071035312994,1.67623710632324,0,-3.19487088082312,-0.585513240482652,0.712909717934109,0.0579468023540523
"sub-MURIC205",23,3,"rating_alc_friend4",1,1.23462212085724,"shutterstock_747693556.jpg","regulation","perspective-taking","beta_0118",-22.2285633005167,1.15822017192841,0,-3.19487088082312,-0.585513240482652,-20.2049432294526,-1.64230031158048
"sub-MURIC205",23,4,"rating_alc_friend4",1,0.701869070529938,"Beer29.jpg","regulation","perspective-taking","beta_0100",0.71480847103048,0.49947851896286,0,-3.19487088082312,-0.585513240482652,2.73842854209453,0.222585235546072
"sub-MURIC205",24,1,"rating_alc_react",1,1.05376195907593,"Wine18.jpg","reactivity","perspective-taking","beta_0111",3.34025246542131,-1.36775231361389,0,-0.801445313054578,-0.146878186887891,5.36387253648536,0.435986849253154
"sub-MURIC205",24,2,"rating_alc_react",3,0.790477097034454,"Beer_X37.jpg","reactivity","perspective-taking","beta_0103",11.4854355529805,-1.58065736293793,0,-0.801445313054578,-0.146878186887891,13.5090556240445,1.09804447399714
"sub-MURIC205",24,3,"rating_alc_react",2,0.64461225271225,"Beer22.jpg","reactivity","perspective-taking","beta_0098",4.65867023656175,1.73751962184906,0,-0.801445313054578,-0.146878186887891,6.6822903076258,0.543150620600996
"sub-MURIC205",24,4,"rating_alc_react",1,0.587626039981842,"Wine22.jpg","reactivity","perspective-taking","beta_0113",-2.0454997681181,0.305799007415771,0,-0.801445313054578,-0.146878186887891,-0.0218796970540525,-0.00177842782734363
"sub-MURIC208",5,1,"rating_alc_friend3",3,0.822487235069275,"Wine19.jpg","regulation","perspective-taking","beta_0018",-1.50471807450347,0.567637205123901,0,1.18757091436433,0.217642127118846,1.98221201925551,0.161118364940345
"sub-MURIC208",5,2,"rating_alc_friend3",3,0.709198236465454,"Liquor_X39.jpg","regulation","perspective-taking","beta_0010",12.2039287300685,0.496285855770111,0,1.18757091436433,0.217642127118846,15.6908588238274,1.27538603017571
"sub-MURIC208",5,3,"rating_alc_friend3",3,0.559733390808105,"shutterstock_629011190.jpg","regulation","perspective-taking","beta_0023",2.33407792768304,0.475315183401108,0,1.18757091436433,0.217642127118846,5.82100802144203,0.473143783615853
"sub-MURIC208",5,4,"rating_alc_friend3",2,0.52642434835434,"Beer27.jpg","regulation","perspective-taking","beta_0004",-10.9669023349876,0.811642169952393,0,1.18757091436433,0.217642127118846,-7.47997224122865,-0.607987887066979
"sub-MURIC208",6,1,"rating_alc_react",2,0.460789680480957,"Liquor25.jpg","reactivity","perspective-taking","beta_0008",2.58705859037881,1.13477611541748,0,-7.96666022654383,-1.46002302411237,6.0739886841378,0.493706584335009
"sub-MURIC208",6,2,"rating_alc_react",2,0.42582231760025,"Wine6.jpg","reactivity","perspective-taking","beta_0019",-40.6479298712001,-1.14089071750641,0,-7.96666022654383,-1.46002302411237,-37.1609997774411,-3.02052427567187
"sub-MURIC208",6,3,"rating_alc_react",2,0.772773802280426,"Wine14.jpg","reactivity","perspective-taking","beta_0017",-20.6847033943917,0.980663895606995,0,-7.96666022654383,-1.46002302411237,-17.1977733006327,-1.39787121049411
"sub-MURIC208",6,4,"rating_alc_react",2,1.30592358112335,"Wine_X36.jpg","reactivity","perspective-taking","beta_0021",-24.2495706668019,-0.940914273262024,0,-7.96666022654383,-1.46002302411237,-20.762640573043,-1.68763112546819
"sub-MURIC208",8,1,"rating_alc_friend3",3,0.538568437099457,"shutterstock_506086420.jpg","regulation","perspective-taking","beta_0055",-6.67379510836556,0.517284154891968,0,1.18757091436433,0.217642127118846,-3.18686501460658,-0.259035095868225
"sub-MURIC208",8,2,"rating_alc_friend3",2,0.388625115156174,"Wine24.jpg","regulation","perspective-taking","beta_0050",-0.786004917585728,-0.457852065563202,0,1.18757091436433,0.217642127118846,2.70092517617326,0.219536883029643
"sub-MURIC208",8,3,"rating_alc_friend3",3,1.16030097007751,"shutterstock_186172556.jpg","regulation","perspective-taking","beta_0052",7.45757799720405,0.348409384489059,0,1.18757091436433,0.217642127118846,10.944508090963,0.889592652835711
"sub-MURIC208",8,4,"rating_alc_friend3",4,0.543524146080017,"Liquor_X30.jpg","regulation","perspective-taking","beta_0040",-9.7326526491865,0.512619376182556,0,1.18757091436433,0.217642127118846,-6.24572255542751,-0.507665474846362
"sub-MURIC208",9,1,"rating_alc_react",2,1.01071357727051,"Liquor_X31.jpg","reactivity","perspective-taking","beta_0041",-9.41222236705827,0.766869068145752,0,-7.96666022654383,-1.46002302411237,-5.92529227329928,-0.481620227096696
"sub-MURIC208",9,2,"rating_alc_react",3,0.623485684394836,"Beer_X35.jpg","reactivity","perspective-taking","beta_0036",10.1211616567491,0.680949807167053,0,-7.96666022654383,-1.46002302411237,13.6080917505081,1.10609433880012
"sub-MURIC208",9,3,"rating_alc_react",3,0.443633794784546,"Beer13.jpg","reactivity","perspective-taking","beta_0033",-14.2357460378948,0.953042984008789,0,-7.96666022654383,-1.46002302411237,-10.7488159441359,-0.873686383263042
"sub-MURIC208",9,4,"rating_alc_react",2,0.468064546585083,"Liquor_X32.jpg","reactivity","perspective-taking","beta_0042",-17.5772647331496,-0.726792812347412,0,-7.96666022654383,-1.46002302411237,-14.0903346393906,-1.14529205579814
"sub-MURIC208",10,1,"rating_alc_react",1,0.568748533725739,"Wine16.jpg","reactivity","perspective-taking","beta_0047",-3.30312567894525,1.16318809986115,0,-7.96666022654383,-1.46002302411237,0.183804414813742,0.0149400096941848
"sub-MURIC208",10,2,"rating_alc_react",1,0.786226868629456,"shutterstock_531124957.jpg","reactivity","perspective-taking","beta_0056",-9.79452416012508,0.521706104278564,0,-7.96666022654383,-1.46002302411237,-6.3075940663661,-0.512694521478092
"sub-MURIC208",10,3,"rating_alc_react",3,0.816069364547729,"Liquor26.jpg","reactivity","perspective-taking","beta_0039",-1.61498566461385,0.924825489521027,0,-7.96666022654383,-1.46002302411237,1.87194442914513,0.152155583132994
"sub-MURIC208",10,4,"rating_alc_react",1,1.30605411529541,"Wine10.jpg","reactivity","perspective-taking","beta_0046",4.84849578235321,-0.048996314406395,0,-7.96666022654383,-1.46002302411237,8.3354258761122,0.677520959006719
"sub-MURIC208",11,1,"rating_alc_friend3",2,0.426151394844055,"Beer_X31.jpg","regulation","perspective-taking","beta_0035",8.1615973721038,0.99531763792038,0,1.18757091436433,0.217642127118846,11.6485274658628,0.946816829396185
"sub-MURIC208",11,2,"rating_alc_friend3",2,0.909571528434753,"shutterstock_219740071.jpg","regulation","perspective-taking","beta_0053",-11.797149755182,-0.048548839986324,0,1.18757091436433,0.217642127118846,-8.31021966142305,-0.675472144824584
"sub-MURIC208",11,3,"rating_alc_friend3",2,0.459821820259094,"Wine_X31.jpg","regulation","perspective-taking","beta_0051",-20.9335631692527,0.652083575725555,0,1.18757091436433,0.217642127118846,-17.4466330754937,-1.4180990567767
"sub-MURIC208",11,4,"rating_alc_friend3",2,1.95440304279327,"shutterstock_489452248.jpg","regulation","perspective-taking","beta_0054",-6.17087192203371,-0.416331082582474,0,1.18757091436433,0.217642127118846,-2.68394182827472,-0.218156440767137
"sub-MURIC208",13,1,"rating_alc_friend4",1,0.643638253211975,"Beer7.jpg","regulation","perspective-taking","beta_0068",45.2381367382952,0.006151862442493,0,1.18757091436433,0.217642127118846,48.7250668320542,3.96047598507557
"sub-MURIC208",13,2,"rating_alc_friend4",1,0.543927013874054,"Beer_X36.jpg","regulation","perspective-taking","beta_0072",11.2315360523631,0.937473118305206,0,1.18757091436433,0.217642127118846,14.7184661461221,1.19634790671064
"sub-MURIC208",13,3,"rating_alc_friend4",1,0.860373377799988,"Liquor_X40.jpg","regulation","perspective-taking","beta_0080",3.20587936989394,0.161946073174477,0,1.18757091436433,0.217642127118846,6.69280946365293,0.544005639742833
"sub-MURIC208",13,4,"rating_alc_friend4",1,1.90642738342285,"Wine5.jpg","regulation","perspective-taking","beta_0083",-4.97967495992725,-0.272805273532867,0,1.18757091436433,0.217642127118846,-1.49274486616826,-0.121333444542656
"sub-MURIC208",14,1,"rating_alc_react",2,0.460857570171356,"Beer6.jpg","reactivity","perspective-taking","beta_0067",-19.3406034256598,0.857522308826447,0,-7.96666022654383,-1.46002302411237,-15.8536733319009,-1.28861993607202
"sub-MURIC208",14,2,"rating_alc_react",2,0.327717691659927,"Beer29.jpg","reactivity","perspective-taking","beta_0066",-19.2378463582043,0.444713145494461,0,-7.96666022654383,-1.46002302411237,-15.7509162644453,-1.28026762535365
"sub-MURIC208",14,3,"rating_alc_react",2,1.5386301279068,"shutterstock_747693556.jpg","reactivity","perspective-taking","beta_0087",1.69833875299903,-0.104347467422485,0,-7.96666022654383,-1.46002302411237,5.18526884675801,0.421469565440098
"sub-MURIC208",14,4,"rating_alc_react",5,1.30604076385498,"Wine9.jpg","reactivity","perspective-taking","beta_0085",11.3449284473496,-1.70947456359863,0,-7.96666022654383,-1.46002302411237,14.8318585411086,1.20556467923519
"sub-MURIC208",18,1,"rating_alc_react",2,0.612668931484222,"Beer_X32.jpg","reactivity","perspective-taking","beta_0070",-5.30264919572629,-0.759396195411682,0,-7.96666022654383,-1.46002302411237,-1.8157191019673,-0.147585470201013
"sub-MURIC208",18,2,"rating_alc_react",2,0.451123893260956,"Beer20.jpg","reactivity","perspective-taking","beta_0065",-4.57139608601732,0.290552586317062,0,-7.96666022654383,-1.46002302411237,-1.08446599225834,-0.088147678355667
"sub-MURIC208",18,3,"rating_alc_react",1,0.485299080610275,"Liquor8.jpg","reactivity","perspective-taking","beta_0077",-11.2458478567257,-0.786371529102325,0,-7.96666022654383,-1.46002302411237,-7.75891776296673,-0.630661166178035
"sub-MURIC208",18,4,"rating_alc_react",1,0.618395924568176,"Liquor5.jpg","reactivity","perspective-taking","beta_0076",-9.20275713451377,0.367811679840088,0,-7.96666022654383,-1.46002302411237,-5.71582704075478,-0.464594452128338
"sub-MURIC208",21,1,"rating_alc_friend4",1,1.60829031467438,"Liquor18.jpg","regulation","perspective-taking","beta_0105",11.4430381242289,-0.623607635498047,0,1.18757091436433,0.217642127118846,14.9299682179879,1.21353924026603
"sub-MURIC208",21,2,"rating_alc_friend4",1,0.800796270370483,"Wine29.jpg","regulation","perspective-taking","beta_0112",4.36993211844528,0.832810163497925,0,1.18757091436433,0.217642127118846,7.85686221220426,0.638622297158394
"sub-MURIC208",21,3,"rating_alc_friend4",1,0.936435878276825,"Beer19.jpg","regulation","perspective-taking","beta_0096",8.69395907833514,0.656723141670227,0,1.18757091436433,0.217642127118846,12.1808891720941,0.990088309354752
"sub-MURIC208",21,4,"rating_alc_friend4",1,0.486184120178223,"Beer24.jpg","regulation","perspective-taking","beta_0097",1.1405993396658,1.06889832019806,0,1.18757091436433,0.217642127118846,4.62752943342479,0.376135332035143
"sub-MURIC208",23,1,"rating_alc_react",2,0.557798206806183,"Liquor16.jpg","reactivity","perspective-taking","beta_0104",9.92149448313783,0.31954237818718,0,-7.96666022654383,-1.46002302411237,13.4084245768968,1.08986497068409
"sub-MURIC208",23,2,"rating_alc_react",1,0.427519261837006,"shutterstock_518689462.jpg","reactivity","perspective-taking","beta_0117",6.22167284061769,0.820919871330261,0,-7.96666022654383,-1.46002302411237,9.70860293437668,0.789135680465356
"sub-MURIC208",23,3,"rating_alc_react",1,0.360495328903198,"shutterstock_227045194.jpg","reactivity","perspective-taking","beta_0115",0.990814131177447,-0.308885216712952,0,-7.96666022654383,-1.46002302411237,4.47774422493643,0.363960475032229
"sub-MURIC208",23,4,"rating_alc_react",2,0.745353698730469,"Beer30.jpg","reactivity","perspective-taking","beta_0098",-28.5126374907869,1.41647040843964,0,-7.96666022654383,-1.46002302411237,-25.0257073970279,-2.03414216951375
"sub-MURIC208",24,1,"rating_alc_friend4",1,0.442250102758408,"Beer_X33.jpg","regulation","perspective-taking",NA,NA,NA,NA,1.18757091436433,0.217642127118846,NA,NA
"sub-MURIC208",24,2,"rating_alc_friend4",1,0.392731130123138,"shutterstock_354506048.jpg","regulation","perspective-taking","beta_0116",-1.1631997481546,0.092961527407169,0,1.18757091436433,0.217642127118846,2.32373034560439,0.188877693308842
"sub-MURIC208",24,3,"rating_alc_friend4",1,0.584140598773956,"Beer16.jpg","regulation","perspective-taking","beta_0095",-7.84976522565129,0.104130610823631,0,1.18757091436433,0.217642127118846,-4.36283513189231,-0.354620422097326
"sub-MURIC208",24,4,"rating_alc_friend4",1,0.803610265254974,"Liquor10.jpg","regulation","perspective-taking","beta_0103",-5.60783395307665,-0.060735832899809,0,1.18757091436433,0.217642127118846,-2.12090385931767,-0.172391529609064
"sub-MURIC209",1,1,"rating_alc_react",2,0.624680399894714,"Beer_X32.jpg","reactivity","control","beta_0003",-11.4159068057904,-0.382500767707825,0,4.45142255823984,1.07869499505342,-15.8673293640303,-1.22375075075125
"sub-MURIC209",1,2,"rating_alc_react",4,0.437341332435608,"Liquor8.jpg","reactivity","control","beta_0010",-26.5904605118987,-0.214741066098213,0,4.45142255823984,1.07869499505342,-31.0418830701385,-2.3940719222687
"sub-MURIC209",1,3,"rating_alc_react",3,0.455135762691498,"Liquor5.jpg","reactivity","control","beta_0009",-25.8602491840706,-0.208503797650337,0,4.45142255823984,1.07869499505342,-30.3116717423105,-2.33775515716377
"sub-MURIC209",1,4,"rating_alc_react",1,0.632124602794647,"Beer20.jpg","reactivity","control","beta_0002",-1.9117988693565,0.048280775547028,0,4.45142255823984,1.07869499505342,-6.36322142759634,-0.490756624543879
"sub-MURIC209",4,1,"rating_alc_react",1,0.7461296916008,"Liquor_X36.jpg","reactivity","control","beta_0011",41.2077255482611,0.358086436986923,0,4.45142255823984,1.07869499505342,36.7563029900213,2.83479042672711
"sub-MURIC209",4,2,"rating_alc_react",2,0.391769081354141,"Wine7.jpg","reactivity","control","beta_0024",-0.282670410941968,-0.493952095508575,0,4.45142255823984,1.07869499505342,-4.73409296918181,-0.365111840326163
"sub-MURIC209",4,3,"rating_alc_react",2,0.49052706360817,"Beer_X34.jpg","reactivity","control","beta_0004",29.9703221380071,0.429088234901428,0,4.45142255823984,1.07869499505342,25.5188995797673,1.96811774701536
"sub-MURIC209",4,4,"rating_alc_react",1,0.571312487125397,"Liquor19.jpg","reactivity","control","beta_0007",-9.44014278015294,0.530480861663818,0,4.45142255823984,1.07869499505342,-13.8915653383928,-1.07137207036902
"sub-MURIC209",5,1,"rating_alc_react",1,0.673159956932068,"Liquor25.jpg","reactivity","control","beta_0008",9.84428028851232,0.119265429675579,0,4.45142255823984,1.07869499505342,5.39285773027248,0.415918365637263
"sub-MURIC209",5,2,"rating_alc_react",3,0.566760659217834,"Wine14.jpg","reactivity","control","beta_0022",-18.9702732965317,0.242070615291595,0,4.45142255823984,1.07869499505342,-23.4216958547715,-1.80637316013108
"sub-MURIC209",5,3,"rating_alc_react",2,0.669887125492096,"Wine_X36.jpg","reactivity","control","beta_0025",18.7785766863404,-0.325996190309525,0,4.45142255823984,1.07869499505342,14.3271541281006,1.10496638836636
"sub-MURIC209",5,4,"rating_alc_react",2,0.796521842479706,"Wine6.jpg","reactivity","control","beta_0023",11.5383438294783,-0.295155555009842,0,4.45142255823984,1.07869499505342,7.08692127123849,0.546571198418124
"sub-MURIC209",7,1,"rating_alc_react",1,0.620037853717804,"Beer6.jpg","reactivity","control",NA,NA,NA,NA,4.45142255823984,1.07869499505342,NA,NA
"sub-MURIC209",7,2,"rating_alc_react",1,0.557761430740356,"shutterstock_747693556.jpg","reactivity","control","beta_0056",-4.70253228670032,0.108497723937035,0,4.45142255823984,1.07869499505342,-9.15395484494016,-0.70598894475795
"sub-MURIC209",7,3,"rating_alc_react",3,0.617138147354126,"Wine9.jpg","reactivity","control","beta_0052",-17.3787746457708,0.236469224095345,0,4.45142255823984,1.07869499505342,-21.8301972040106,-1.68363053444996
"sub-MURIC209",7,4,"rating_alc_react",2,0.472911924123764,"Beer29.jpg","reactivity","control","beta_0033",24.7266613481366,0.061667121946812,0,4.45142255823984,1.07869499505342,20.2752387898967,1.56370603531071
"sub-MURIC209",10,1,"rating_alc_react",2,1.4045604467392,"Wine16.jpg","reactivity","control","beta_0051",35.5014069737904,-0.619513750076294,0,4.45142255823984,1.07869499505342,31.0499844155505,2.39469672984045
"sub-MURIC209",10,2,"rating_alc_react",3,0.488051861524582,"Liquor26.jpg","reactivity","control","beta_0044",30.8676167295786,-0.152942523360252,0,4.45142255823984,1.07869499505342,26.4161941713388,2.03732062954769
"sub-MURIC209",10,3,"rating_alc_react",2,0.473013818264008,"Wine10.jpg","reactivity","control","beta_0050",-19.0779621097445,0.2471764087677,0,4.45142255823984,1.07869499505342,-23.5293846679844,-1.81467854429456
"sub-MURIC209",10,4,"rating_alc_react",4,0.390071868896484,"shutterstock_531124957.jpg","reactivity","control","beta_0055",19.1675210568089,0.878354907035828,0,4.45142255823984,1.07869499505342,14.716098498569,1.13496330558169
"sub-MURIC209",12,1,"rating_alc_react",1,0.461377084255219,"Liquor16.jpg","reactivity","control","beta_0043",-9.5659012237186,-0.203623846173286,0,4.45142255823984,1.07869499505342,-14.0173237819584,-1.08107105538383
"sub-MURIC209",12,2,"rating_alc_react",1,0.608367145061493,"shutterstock_227045194.jpg","reactivity","control","beta_0053",11.7278358267155,0.735151350498199,0,4.45142255823984,1.07869499505342,7.27641326847565,0.561185565370511
"sub-MURIC209",12,3,"rating_alc_react",2,0.396409928798676,"Beer30.jpg","reactivity","control","beta_0034",-20.4519996264729,0.385428994894028,0,4.45142255823984,1.07869499505342,-24.9034221847127,-1.92064971336026
"sub-MURIC209",12,4,"rating_alc_react",4,0.52355569601059,"shutterstock_518689462.jpg","reactivity","control","beta_0054",-19.1179810648431,0.007337925024331,0,4.45142255823984,1.07869499505342,-23.569403623083,-1.81776496326417
"sub-MURIC209",13,1,"rating_alc_react",2,0.421446651220322,"Wine18.jpg","reactivity","control","beta_0084",36.9436432750123,-0.097002968192101,0,4.45142255823984,1.07869499505342,32.4922207167725,2.50592765697945
"sub-MURIC209",13,2,"rating_alc_react",1,0.656094968318939,"Beer22.jpg","reactivity","control","beta_0067",0.519663602783127,-0.428776293992996,0,4.45142255823984,1.07869499505342,-3.93175895545671,-0.303232690462725
"sub-MURIC209",13,3,"rating_alc_react",2,0.873291969299316,"Beer_X37.jpg","reactivity","control","beta_0069",25.4610910149626,-0.640469193458557,0,4.45142255823984,1.07869499505342,21.0096684567227,1.62034813528437
"sub-MURIC209",13,4,"rating_alc_react",5,0.490043610334396,"Wine22.jpg","reactivity","control","beta_0085",15.2432982886797,0.053936444222927,0,4.45142255823984,1.07869499505342,10.7918757304399,0.832311835479891
"sub-MURIC209",14,1,"rating_alc_react",1,0.462503671646118,"Liquor_X31.jpg","reactivity","control","beta_0074",13.5774208187388,0.223318323493004,0,4.45142255823984,1.07869499505342,9.12599826049896,0.703832823181757
"sub-MURIC209",14,2,"rating_alc_react",1,0.714775085449219,"Beer13.jpg","reactivity","control","beta_0065",-17.2087302263665,0.310656875371933,0,4.45142255823984,1.07869499505342,-21.6601527846064,-1.6705160410697
"sub-MURIC209",14,3,"rating_alc_react",1,0.595672369003296,"Liquor_X32.jpg","reactivity","control","beta_0075",-0.889078098908661,0.648898184299469,0,4.45142255823984,1.07869499505342,-5.3405006571485,-0.411880382554373
"sub-MURIC209",14,4,"rating_alc_react",1,0.383143901824951,"Beer_X35.jpg","reactivity","control","beta_0068",4.42443601542391,-0.286260157823563,0,4.45142255823984,1.07869499505342,-0.0269865428159264,-0.00208130815674847
"sub-MURIC209",15,1,"rating_alc_react",2,1.29057097434998,"Beer1.jpg","reactivity","control","beta_0064",-20.5521040174913,-0.139571353793144,0,4.45142255823984,1.07869499505342,-25.0035265757312,-1.92837015710046
"sub-MURIC209",15,2,"rating_alc_react",2,0.491588234901428,"shutterstock_59587495.jpg","reactivity","control","beta_0087",12.5792665563445,-0.209568828344345,0,4.45142255823984,1.07869499505342,8.12784399810465,0.626851246764769
"sub-MURIC209",15,3,"rating_alc_react",3,0.779959857463837,"Wine8.jpg","reactivity","control","beta_0086",15.2922516254777,0.097260929644108,0,4.45142255823984,1.07869499505342,10.8408290672379,0.83608730905102
"sub-MURIC209",15,4,"rating_alc_react",2,0.641710042953491,"Beer14.jpg","reactivity","control",NA,NA,NA,NA,4.45142255823984,1.07869499505342,NA,NA
"sub-MURIC209",19,1,"rating_alc_react",1,0.366065055131912,"shutterstock_54126199.jpg","reactivity","control","beta_0116",-5.9752534665545,0.511733174324036,0,4.45142255823984,1.07869499505342,-10.4266760247943,-0.804146200059795
"sub-MURIC209",19,2,"rating_alc_react",2,0.872397303581238,"Beer_X38.jpg","reactivity","control","beta_0097",25.6957853234359,0.218815833330154,0,4.45142255823984,1.07869499505342,21.244362765196,1.63844868198647
"sub-MURIC209",19,3,"rating_alc_react",4,0.421890020370483,"Wine_X33.jpg","reactivity","control","beta_0114",-9.63094463348356,-0.297704100608826,0,4.45142255823984,1.07869499505342,-14.0823671917234,-1.08608745856707
"sub-MURIC209",19,4,"rating_alc_react",4,0.406170755624771,"shutterstock_194729426.jpg","reactivity","control","beta_0115",-12.1025541065791,0.169196233153343,0,4.45142255823984,1.07869499505342,-16.5539766648189,-1.27670768701718
"sub-MURIC209",22,1,"rating_alc_react",2,0.582736968994141,"Beer9.jpg","reactivity","control","beta_0096",28.5370193796898,0.471438467502594,0,4.45142255823984,1.07869499505342,24.0855968214499,1.85757580978673
"sub-MURIC209",22,2,"rating_alc_react",3,0.579852104187012,"Wine_X32.jpg","reactivity","control","beta_0113",30.0435525776566,-0.004608654417098,0,4.45142255823984,1.07869499505342,25.5921300194168,1.97376556609335
"sub-MURIC209",22,3,"rating_alc_react",1,0.430741190910339,"Liquor_X33.jpg","reactivity","control","beta_0101",-10.5896311325482,0.268582105636597,0,4.45142255823984,1.07869499505342,-15.0410536907881,-1.16002512608817
"sub-MURIC209",22,4,"rating_alc_react",1,0.437698364257812,"Beer12.jpg","reactivity","control","beta_0095",8.07804740008952,-1.18045818805695,0,4.45142255823984,1.07869499505342,3.62662484184968,0.27969954937517
"sub-MURIC209",23,1,"rating_alc_react",2,0.467717260122299,"Liquor_X37.jpg","reactivity","control","beta_0102",3.30528423060699,0.178016275167465,0,4.45142255823984,1.07869499505342,-1.14613832763285,-0.0883946886540983
"sub-MURIC209",23,2,"rating_alc_react",1,0.458039999008179,"Liquor_X42.jpg","reactivity","control","beta_0103",7.74545588315878,0.066384851932526,0,4.45142255823984,1.07869499505342,3.29403332491894,0.254048785519462
"sub-MURIC209",23,3,"rating_alc_react",3,0.713122248649597,"shutterstock_650326123.jpg","reactivity","control","beta_0117",8.58683900537989,0.271861165761948,0,4.45142255823984,1.07869499505342,4.13541644714005,0.31893955597398
"sub-MURIC209",23,4,"rating_alc_react",5,0.391371250152588,"shutterstock_93461314.jpg","reactivity","control","beta_0118",-2.88295924611172,-0.113626107573509,0,4.45142255823984,1.07869499505342,-7.33438180435155,-0.56565632649676
"sub-MURIC210",1,1,"rating_alc_mindful",1,0.767065644264221,"Liquor19.jpg","regulation","mindful attention","beta_0010",-10.3160600790139,-0.835234522819519,0,3.02366126049862,0.433030299671575,-7.25026503978279,-0.468093366129872
"sub-MURIC210",1,2,"rating_alc_mindful",4,0.846360325813293,"Beer_X34.jpg","regulation","mindful attention","beta_0006",13.1751728882089,-2.23523497581482,0,3.02366126049862,0.433030299671575,16.24096792744,1.04855330179632
"sub-MURIC210",1,3,"rating_alc_mindful",3,1.02000594139099,"Liquor_X36.jpg","regulation","mindful attention","beta_0013",-8.40581118605087,0.721441686153412,0,3.02366126049862,0.433030299671575,-5.34001614681975,-0.344763414804434
"sub-MURIC210",1,4,"rating_alc_mindful",2,0.703336715698242,"Wine7.jpg","regulation","mindful attention","beta_0020",3.38601697179196,0.891845405101776,0,3.02366126049862,0.433030299671575,6.45181201102308,0.416543448454045
"sub-MURIC210",3,1,"rating_alc_react",5,0.440597355365753,"Beer29.jpg","reactivity","mindful attention","beta_0003",0.04177058569935,0.299477607011795,0,-9.15525133896085,-1.31115918395735,3.10756562493047,0.200631403936477
"sub-MURIC210",3,2,"rating_alc_react",2,1.03009855747223,"Wine9.jpg","reactivity","mindful attention","beta_0021",-29.4158725276617,0.681595623493195,0,-9.15525133896085,-1.31115918395735,-26.3500774884306,-1.70122007977131
"sub-MURIC210",3,3,"rating_alc_react",4,0.530440270900726,"Beer6.jpg","reactivity","mindful attention","beta_0004",-30.5347622148709,-1.81880283355713,0,-9.15525133896085,-1.31115918395735,-27.4689671756398,-1.7734581065386
"sub-MURIC210",3,4,"rating_alc_react",2,0.713406085968018,"shutterstock_747693556.jpg","reactivity","mindful attention","beta_0025",2.1960294844676,0.370917111635208,0,-9.15525133896085,-1.31115918395735,5.26182452369871,0.339715188309396
"sub-MURIC210",4,1,"rating_alc_mindful",4,1.71193969249725,"shutterstock_219740071.jpg","regulation","mindful attention","beta_0023",37.2264404556689,-0.232584521174431,0,3.02366126049862,0.433030299671575,40.2922354949,2.6013570591166
"sub-MURIC210",4,2,"rating_alc_mindful",4,0.495936244726181,"shutterstock_489452248.jpg","regulation","mindful attention","beta_0024",16.274294000133,0.35642483830452,0,3.02366126049862,0.433030299671575,19.3400890393641,1.24863950904043
"sub-MURIC210",4,3,"rating_alc_mindful",4,0.581452310085297,"Beer_X31.jpg","regulation","mindful attention","beta_0005",19.9447518195999,0.416022479534149,0,3.02366126049862,0.433030299671575,23.010546858831,1.4856124950657
"sub-MURIC210",4,4,"rating_alc_mindful",1,0.613496422767639,"Wine_X31.jpg","regulation","mindful attention","beta_0022",7.63536475148164,-0.627926528453827,0,3.02366126049862,0.433030299671575,10.7011597907128,0.690890868187963
"sub-MURIC210",6,1,"rating_alc_react",3,0.542965769767761,"Beer_X35.jpg","reactivity","mindful attention","beta_0007",-0.798132534932979,-0.006007198709995,0,-9.15525133896085,-1.31115918395735,2.26766250429814,0.146405375397864
"sub-MURIC210",6,2,"rating_alc_react",1,0.596199750900269,"Liquor_X32.jpg","reactivity","mindful attention","beta_0012",-39.545616324278,0.379942178726196,0,-9.15525133896085,-1.31115918395735,-36.4798212850469,-2.35521905026045
"sub-MURIC210",6,3,"rating_alc_react",1,0.656907558441162,"Liquor_X31.jpg","reactivity","mindful attention","beta_0011",9.14639638907199,-1.49349808692932,0,-9.15525133896085,-1.31115918395735,12.2121914283031,0.788446458457748
"sub-MURIC210",6,4,"rating_alc_react",3,0.924806296825409,"Beer13.jpg","reactivity","mindful attention","beta_0002",32.9691995284249,-2.41789364814758,0,-9.15525133896085,-1.31115918395735,36.034994567656,2.32650004008007
"sub-MURIC210",7,1,"rating_alc_mindful",3,0.645795881748199,"Liquor_X39.jpg","regulation","mindful attention","beta_0040",-11.6338627468131,0.67829954624176,0,3.02366126049862,0.433030299671575,-8.56806770758203,-0.5531736608888
"sub-MURIC210",7,2,"rating_alc_mindful",3,0.658285319805145,"Beer27.jpg","regulation","mindful attention","beta_0034",-18.6409277389089,-0.303445905447006,0,3.02366126049862,0.433030299671575,-15.5751326996778,-1.00556548668323
"sub-MURIC210",7,3,"rating_alc_mindful",1,0.674583196640015,"Wine19.jpg","regulation","mindful attention","beta_0049",10.7562914644041,0.118326053023338,0,3.02366126049862,0.433030299671575,13.8220865036352,0.892384893920883
"sub-MURIC210",7,4,"rating_alc_mindful",1,0.60485577583313,"shutterstock_629011190.jpg","regulation","mindful attention","beta_0056",-18.9082971080696,-0.458676636219025,0,3.02366126049862,0.433030299671575,-15.8425020688385,-1.02282745260085
"sub-MURIC210",8,1,"rating_alc_react",3,0.439685732126236,"shutterstock_194729426.jpg","reactivity","mindful attention","beta_0053",-8.83093829869484,0.299776196479797,0,-9.15525133896085,-1.31115918395735,-5.76514325946373,-0.372210574335661
"sub-MURIC210",8,2,"rating_alc_react",2,0.644631683826447,"Wine_X33.jpg","reactivity","mindful attention","beta_0051",-6.3300991987915,-0.345186293125153,0,-9.15525133896085,-1.31115918395735,-3.26430415956039,-0.210750795141434
"sub-MURIC210",8,3,"rating_alc_react",2,0.573845028877258,"shutterstock_54126199.jpg","reactivity","mindful attention","beta_0055",-15.7805486390839,-1.07290256023407,0,-9.15525133896085,-1.31115918395735,-12.7147535998528,-0.820892999002047
"sub-MURIC210",8,4,"rating_alc_react",1,0.679009675979614,"Beer_X38.jpg","reactivity","mindful attention","beta_0036",-19.1696340888772,0.720300853252411,0,-9.15525133896085,-1.31115918395735,-16.1038390496461,-1.03969995400173
"sub-MURIC210",11,1,"rating_alc_react",2,0.887032508850098,"Beer20.jpg","reactivity","mindful attention","beta_0033",-9.65636955301873,-0.725886404514313,0,-9.15525133896085,-1.31115918395735,-6.59057451378762,-0.425502266739343
"sub-MURIC210",11,2,"rating_alc_react",3,0.538922727108002,"Liquor5.jpg","reactivity","mindful attention","beta_0037",-1.43677257442068,-0.2549147605896,0,-9.15525133896085,-1.31115918395735,1.62902246481044,0.105173342611644
"sub-MURIC210",11,3,"rating_alc_react",4,0.757225036621094,"Beer_X32.jpg","reactivity","mindful attention","beta_0035",-19.2621041142404,-0.246047869324684,0,-9.15525133896085,-1.31115918395735,-16.1963090750093,-1.04567002615783
"sub-MURIC210",11,4,"rating_alc_react",4,0.674478888511658,"Liquor8.jpg","reactivity","mindful attention","beta_0038",-3.71758888002694,-0.036687850952148,0,-9.15525133896085,-1.31115918395735,-0.651793840795823,-0.0420812716896174
"sub-MURIC210",12,1,"rating_alc_mindful",2,0.465471863746643,"Wine24.jpg","regulation","mindful attention","beta_0050",-1.59874621274612,-0.09551977366209,0,3.02366126049862,0.433030299671575,1.46704882648499,0.0947159613749529
"sub-MURIC210",12,2,"rating_alc_mindful",3,0.846930742263794,"Liquor_X30.jpg","regulation","mindful attention","beta_0039",-6.97614559377738,-1.44386351108551,0,3.02366126049862,0.433030299671575,-3.91035055454626,-0.252460998843734
"sub-MURIC210",12,3,"rating_alc_mindful",2,0.579936325550079,"shutterstock_506086420.jpg","regulation","mindful attention","beta_0054",11.990738235834,-0.963651478290558,0,3.02366126049862,0.433030299671575,15.0565332750651,0.972083545125515
"sub-MURIC210",12,4,"rating_alc_mindful",3,0.463286191225052,"shutterstock_186172556.jpg","regulation","mindful attention","beta_0052",-11.1478567837519,-1.68417358398438,0,3.02366126049862,0.433030299671575,-8.08206174452082,-0.521796026283689
"sub-MURIC210",15,1,"rating_alc_react",1,0.658094763755798,"shutterstock_518689462.jpg","reactivity","mindful attention","beta_0087",-24.0404967820542,-0.121213145554066,0,-9.15525133896085,-1.31115918395735,-20.9747017428231,-1.35417376999259
"sub-MURIC210",15,2,"rating_alc_react",3,0.463850557804108,"Beer30.jpg","reactivity","mindful attention","beta_0066",-19.2572788451896,1.24150907993317,0,-9.15525133896085,-1.31115918395735,-16.1914838059585,-1.04535849596962
"sub-MURIC210",15,3,"rating_alc_react",1,0.413173198699951,"Liquor16.jpg","reactivity","mindful attention","beta_0074",-6.62116500147579,0.34670427441597,0,-9.15525133896085,-1.31115918395735,-3.55536996224467,-0.229542655934962
"sub-MURIC210",15,4,"rating_alc_react",1,0.658395707607269,"shutterstock_227045194.jpg","reactivity","mindful attention","beta_0086",18.3321345127196,0.120478466153145,0,-9.15525133896085,-1.31115918395735,21.3979295519507,1.38149830623055
"sub-MURIC210",16,1,"rating_alc_react",1,0.457527220249176,"Wine6.jpg","reactivity","mindful attention","beta_0084",-4.42827320878081,-0.673411011695862,0,-9.15525133896085,-1.31115918395735,-1.36247816954969,-0.0879646453148267
"sub-MURIC210",16,2,"rating_alc_react",1,0.636358082294464,"Wine_X36.jpg","reactivity","mindful attention","beta_0085",3.64780831964724,-1.24938404560089,0,-9.15525133896085,-1.31115918395735,6.71360335887836,0.433445284810213
"sub-MURIC210",16,3,"rating_alc_react",1,0.404482036828995,"Liquor25.jpg","reactivity","mindful attention","beta_0076",-21.7400840024775,-0.15709325671196,0,-9.15525133896085,-1.31115918395735,-18.6742889632464,-1.20565396339632
"sub-MURIC210",16,4,"rating_alc_react",1,0.423367708921432,"Wine14.jpg","reactivity","mindful attention","beta_0081",-31.3456819476161,1.44428420066833,0,-9.15525133896085,-1.31115918395735,-28.279886908385,-1.8258129025742
"sub-MURIC210",17,1,"rating_alc_mindful",1,0.474572628736496,"Wine29.jpg","regulation","mindful attention","beta_0082",8.43635770658858,-1.46491193771362,0,3.02366126049862,0.433030299671575,11.5021527458197,0.742604769203304
"sub-MURIC210",17,2,"rating_alc_mindful",2,1.00526905059814,"Beer24.jpg","regulation","mindful attention","beta_0065",26.9428838564773,-0.505461513996124,0,3.02366126049862,0.433030299671575,30.0086788957084,1.93742758924347
"sub-MURIC210",17,3,"rating_alc_mindful",2,0.492033064365387,"Liquor18.jpg","regulation","mindful attention","beta_0075",51.1630055846071,0.364922434091568,0,3.02366126049862,0.433030299671575,54.2288006238382,3.50113294974918
"sub-MURIC210",17,4,"rating_alc_mindful",4,0.639518022537231,"Beer19.jpg","regulation","mindful attention","beta_0064",8.30396262176569,0.776033401489258,0,3.02366126049862,0.433030299671575,11.3697576609968,0.73405704569613
"sub-MURIC210",18,1,"rating_alc_mindful",1,0.413102507591248,"Beer_X36.jpg","regulation","mindful attention","beta_0068",-23.4873197772325,-0.032286919653416,0,3.02366126049862,0.433030299671575,-20.4215247380014,-1.31845942233333
"sub-MURIC210",18,2,"rating_alc_mindful",1,0.440499603748322,"Wine5.jpg","regulation","mindful attention","beta_0083",-39.1857958730764,0.043231848627329,0,3.02366126049862,0.433030299671575,-36.1200008338453,-2.33198823521008
"sub-MURIC210",18,3,"rating_alc_mindful",3,0.425078898668289,"Beer7.jpg","regulation","mindful attention","beta_0067",-13.8539104153152,-0.802409827709198,0,3.02366126049862,0.433030299671575,-10.7881153760841,-0.696504915734766
"sub-MURIC210",18,4,"rating_alc_mindful",4,0.629763245582581,"Liquor_X40.jpg","regulation","mindful attention","beta_0077",3.35163896607594,-0.101717956364155,0,3.02366126049862,0.433030299671575,6.41743400530706,0.414323927329211
"sub-MURIC210",20,1,"rating_alc_mindful",3,0.423212945461273,"shutterstock_354506048.jpg","regulation","mindful attention","beta_0117",17.9317831663161,0.45845565199852,0,3.02366126049862,0.433030299671575,20.9975782055472,1.3556507257153
"sub-MURIC210",20,2,"rating_alc_mindful",4,0.554289698600769,"Liquor10.jpg","regulation","mindful attention","beta_0104",-17.4073497080862,-0.121988296508789,0,3.02366126049862,0.433030299671575,-14.3415546688551,-0.925922923319931
"sub-MURIC210",20,3,"rating_alc_mindful",4,1.64206254482269,"Beer_X33.jpg","regulation","mindful attention","beta_0099",-8.47715492036537,-0.165687829256058,0,3.02366126049862,0.433030299671575,-5.41135988113426,-0.349369526245093
"sub-MURIC210",20,4,"rating_alc_mindful",3,1.24630665779114,"Beer16.jpg","regulation","mindful attention","beta_0096",-8.79378679674306,0.712423205375671,0,3.02366126049862,0.433030299671575,-5.72799175751195,-0.369811990075642
"sub-MURIC210",21,1,"rating_alc_react",3,0.677284240722656,"Beer12.jpg","reactivity","mindful attention","beta_0095",-23.2165322397315,-0.558444082736969,0,-9.15525133896085,-1.31115918395735,-20.1507372005004,-1.30097677180409
"sub-MURIC210",21,2,"rating_alc_react",1,0.446488529443741,"Liquor_X33.jpg","reactivity","mindful attention","beta_0106",6.42079090144154,-1.99945104122162,0,-9.15525133896085,-1.31115918395735,9.48658594067265,0.612475257343532
"sub-MURIC210",21,3,"rating_alc_react",4,0.376157641410828,"Beer9.jpg","reactivity","mindful attention","beta_0098",-15.9492789460497,0.617525160312653,0,-9.15525133896085,-1.31115918395735,-12.8834839068186,-0.831786605914672
"sub-MURIC210",21,4,"rating_alc_react",2,0.629190325737,"Wine_X32.jpg","reactivity","mindful attention","beta_0116",14.2424730692038,0.77476578950882,0,-9.15525133896085,-1.31115918395735,17.3082681084349,1.11746059437826
"sub-MURIC210",23,1,"rating_alc_mindful",2,0.723890900611877,"Wine22.jpg","regulation","mindful attention","beta_0115",3.37579350395775,0.531800866127014,0,3.02366126049862,0.433030299671575,6.44158854318886,0.415883398449558
"sub-MURIC210",23,2,"rating_alc_mindful",4,0.462727427482605,"Beer_X37.jpg","regulation","mindful attention","beta_0100",9.21425102912811,-1.01510798931122,0,3.02366126049862,0.433030299671575,12.2800460683592,0.792827306150504
"sub-MURIC210",23,3,"rating_alc_mindful",2,1.01463055610657,"Wine18.jpg","regulation","mindful attention","beta_0114",19.9856972790698,-2.81915211677551,0,3.02366126049862,0.433030299671575,23.0514923183009,1.48825602572918
"sub-MURIC210",23,4,"rating_alc_mindful",4,0.595760941505432,"Beer22.jpg","regulation","mindful attention","beta_0097",26.4957409747978,-1.14776158332825,0,3.02366126049862,0.433030299671575,29.5615360140289,1.90855904230375
"sub-MURIC210",24,1,"rating_alc_react",3,0.529816746711731,"shutterstock_531124957.jpg","reactivity","mindful attention","beta_0118",-27.433144322869,-0.502005457878113,0,-9.15525133896085,-1.31115918395735,-24.3673492836379,-1.57321070157486
"sub-MURIC210",24,2,"rating_alc_react",1,0.463424026966095,"Wine10.jpg","reactivity","mindful attention","beta_0112",-3.98511857373774,-1.78376877307892,0,-9.15525133896085,-1.31115918395735,-0.919323534506628,-0.0593535885196427
"sub-MURIC210",24,3,"rating_alc_react",1,0.413382917642593,"Wine16.jpg","reactivity","mindful attention","beta_0113",-17.5165784172007,0.934947192668915,0,-9.15525133896085,-1.31115918395735,-14.4507833779696,-0.932974973672137
"sub-MURIC210",24,4,"rating_alc_react",2,0.427253931760788,"Liquor26.jpg","reactivity","mindful attention","beta_0105",0.047425598657189,-0.470897525548935,0,-9.15525133896085,-1.31115918395735,3.1132206378883,0.200996504251627
"sub-MURIC212",1,1,"rating_alc_mindful",3,1.18455827236176,"Wine18.jpg","regulation","mindful attention","beta_0017",0.173578091219882,-0.116083614528179,0,7.86516955363702,1.12640154943069,-0.110525522511993,-0.0071357755326213
"sub-MURIC212",1,2,"rating_alc_mindful",4,1.32467031478882,"Beer22.jpg","regulation","mindful attention","beta_0004",5.00799796131003,-0.509359002113342,0,7.86516955363702,1.12640154943069,4.72389434757816,0.304985210094606
"sub-MURIC212",1,3,"rating_alc_mindful",2,0.723790228366852,"Beer_X37.jpg","regulation","mindful attention","beta_0008",-2.81870090286082,-0.048906076699495,0,7.86516955363702,1.12640154943069,-3.1028045165927,-0.200324016107742
"sub-MURIC212",1,4,"rating_alc_mindful",3,0.446463584899902,"Wine22.jpg","regulation","mindful attention","beta_0018",3.60860245497079,0.384112745523453,0,7.86516955363702,1.12640154943069,3.32449884123892,0.214637098747635
"sub-MURIC212",2,1,"rating_alc_mindful",3,1.36309325695038,"Beer_X31.jpg","regulation","mindful attention",NA,NA,NA,NA,7.86516955363702,1.12640154943069,NA,NA
"sub-MURIC212",2,2,"rating_alc_mindful",3,0.396815747022629,"Wine_X31.jpg","regulation","mindful attention","beta_0021",32.2354317240914,-0.163314893841743,0,7.86516955363702,1.12640154943069,31.9513281103595,2.06284937797891
"sub-MURIC212",2,3,"rating_alc_mindful",5,0.643721759319305,"shutterstock_489452248.jpg","regulation","mindful attention","beta_0023",26.4023929241484,0.120784148573875,0,7.86516955363702,1.12640154943069,26.1182893104165,1.68625531532748
"sub-MURIC212",2,4,"rating_alc_mindful",4,0.379827469587326,"shutterstock_219740071.jpg","regulation","mindful attention","beta_0022",22.2183855869845,0.428450047969818,0,7.86516955363702,1.12640154943069,21.9342819732527,1.41612642105691
"sub-MURIC212",3,1,"rating_alc_react",2,0.428750038146973,"Beer6.jpg","reactivity","mindful attention","beta_0006",12.9909354476238,-0.171545132994652,0,-7.06005401555123,-1.01109781905514,12.7068318338919,0.820381552030941
"sub-MURIC212",3,2,"rating_alc_react",4,0.396714180707932,"shutterstock_747693556.jpg","reactivity","mindful attention","beta_0025",-23.7331847748802,-0.631054639816284,0,-7.06005401555123,-1.01109781905514,-24.0172883886121,-1.55060998535222
"sub-MURIC212",3,3,"rating_alc_react",1,0.662382006645203,"Wine9.jpg","reactivity","mindful attention","beta_0020",12.9695070529387,0.138631477952003,0,-7.06005401555123,-1.01109781905514,12.6854034392068,0.81899808682741
"sub-MURIC212",3,4,"rating_alc_react",2,0.52361387014389,"Beer29.jpg","reactivity","mindful attention","beta_0005",-39.663998184748,0.153206720948219,0,-7.06005401555123,-1.01109781905514,-39.9481017984799,-2.57913901612477
"sub-MURIC212",6,1,"rating_alc_react",2,1.47966051101685,"Beer1.jpg","reactivity","mindful attention","beta_0002",-17.2841662083032,-0.137472435832024,0,-7.06005401555123,-1.01109781905514,-17.568269822035,-1.13424688793454
"sub-MURIC212",6,2,"rating_alc_react",4,0.496875494718552,"shutterstock_59587495.jpg","reactivity","mindful attention","beta_0024",4.70436364311888,1.08876073360443,0,-7.06005401555123,-1.01109781905514,4.420260029387,0.285381897761227
"sub-MURIC212",6,3,"rating_alc_react",2,0.429526001214981,"Wine8.jpg","reactivity","mindful attention","beta_0019",-0.930326931494924,1.03418838977814,0,-7.06005401555123,-1.01109781905514,-1.2144305452268,-0.0784063587643933
"sub-MURIC212",6,4,"rating_alc_react",4,0.674097657203674,"Beer14.jpg","reactivity","mindful attention","beta_0003",-25.454185258341,0.054705049842596,0,-7.06005401555123,-1.01109781905514,-25.7382888720728,-1.6617216350635
"sub-MURIC212",7,1,"rating_alc_react",4,1.05593454837799,"shutterstock_54126199.jpg","reactivity","mindful attention","beta_0055",-21.6448512623308,-0.211809247732162,0,-7.06005401555123,-1.01109781905514,-21.9289548760627,-1.41578249171892
"sub-MURIC212",7,2,"rating_alc_react",5,0.923949599266052,"Beer_X38.jpg","reactivity","mindful attention","beta_0036",-28.2767041550115,-0.881734073162079,0,-7.06005401555123,-1.01109781905514,-28.5608077687434,-1.84394978314611
"sub-MURIC212",7,3,"rating_alc_react",3,1.29567456245422,"Wine_X33.jpg","reactivity","mindful attention","beta_0051",-24.8755753141637,0.00725154299289,0,-7.06005401555123,-1.01109781905514,-25.1596789278956,-1.62436527981855
"sub-MURIC212",7,4,"rating_alc_react",5,0.497166752815247,"shutterstock_194729426.jpg","reactivity","mindful attention","beta_0053",-5.84701904851969,0.215212687849998,0,-7.06005401555123,-1.01109781905514,-6.13112266225157,-0.395839025108861
"sub-MURIC212",9,1,"rating_alc_mindful",4,1.21332061290741,"shutterstock_506086420.jpg","regulation","mindful attention","beta_0054",-15.6131347919941,-0.348928481340408,0,7.86516955363702,1.12640154943069,-15.897238405726,-1.02636135322969
"sub-MURIC212",9,2,"rating_alc_mindful",3,1.26241195201874,"shutterstock_186172556.jpg","regulation","mindful attention","beta_0052",11.922399206425,-0.319748818874359,0,7.86516955363702,1.12640154943069,11.6382955926931,0.751394456630979
"sub-MURIC212",9,3,"rating_alc_mindful",4,0.581875860691071,"Liquor_X30.jpg","regulation","mindful attention","beta_0042",28.4832447405654,0.205442443490028,0,7.86516955363702,1.12640154943069,28.1991411268336,1.82059977388444
"sub-MURIC212",9,4,"rating_alc_mindful",2,0.487909853458405,"Wine24.jpg","regulation","mindful attention","beta_0049",3.8276783513034,-0.024124588817358,0,7.86516955363702,1.12640154943069,3.54357473757153,0.228781129785061
"sub-MURIC212",11,1,"rating_alc_mindful",3,0.501385986804962,"Wine19.jpg","regulation","mindful attention","beta_0048",12.0181961330208,-0.564817070960999,0,7.86516955363702,1.12640154943069,11.7340925192889,0.757579320989601
"sub-MURIC212",11,2,"rating_alc_mindful",2,0.391707479953766,"shutterstock_629011190.jpg","regulation","mindful attention","beta_0056",14.6423531693789,0.112008698284626,0,7.86516955363702,1.12640154943069,14.358249555647,0.927000782641308
"sub-MURIC212",11,3,"rating_alc_mindful",4,0.443508744239807,"Beer27.jpg","regulation","mindful attention","beta_0034",10.3930880578377,-0.202088266611099,0,7.86516955363702,1.12640154943069,10.1089844441058,0.652658700148395
"sub-MURIC212",11,4,"rating_alc_mindful",4,0.525128960609436,"Liquor_X39.jpg","regulation","mindful attention","beta_0044",16.54949643694,0.675588428974152,0,7.86516955363702,1.12640154943069,16.2653928232081,1.05013022782796
"sub-MURIC212",12,1,"rating_alc_react",2,0.529462516307831,"Beer9.jpg","reactivity","mindful attention","beta_0035",27.9789108133535,0.455303877592087,0,-7.06005401555123,-1.01109781905514,27.6948071996217,1.7880388448223
"sub-MURIC212",12,2,"rating_alc_react",1,0.673719048500061,"Wine_X32.jpg","reactivity","mindful attention","beta_0050",1.08822497211657,-1.73289310932159,0,-7.06005401555123,-1.01109781905514,0.804121358384695,0.0519158777448629
"sub-MURIC212",12,3,"rating_alc_react",1,0.660336971282959,"Liquor_X33.jpg","reactivity","mindful attention","beta_0043",-5.48152088266189,-0.894807994365692,0,-7.06005401555123,-1.01109781905514,-5.76562449639376,-0.372241644070802
"sub-MURIC212",12,4,"rating_alc_react",4,0.496236890554428,"Beer12.jpg","reactivity","mindful attention","beta_0033",1.18764834322669,0.169249996542931,0,-7.06005401555123,-1.01109781905514,0.903544729494811,0.0583348734918526
"sub-MURIC212",14,1,"rating_alc_mindful",5,0.762560069561005,"Liquor_X36.jpg","regulation","mindful attention","beta_0072",25.6023733975503,0.152840450406075,0,7.86516955363702,1.12640154943069,25.3182697838184,1.6346042610391
"sub-MURIC212",14,2,"rating_alc_mindful",2,0.529501795768738,"Wine7.jpg","regulation","mindful attention","beta_0084",20.1536610809105,-0.262369930744171,0,7.86516955363702,1.12640154943069,19.8695574671787,1.28282317781327
"sub-MURIC212",14,3,"rating_alc_mindful",3,0.524989306926727,"Beer_X34.jpg","regulation","mindful attention","beta_0065",15.9048438679938,0.196274325251579,0,7.86516955363702,1.12640154943069,15.6207402542619,1.00851001265975
"sub-MURIC212",14,4,"rating_alc_mindful",3,0.669872462749481,"Liquor19.jpg","regulation","mindful attention","beta_0070",45.2008238866667,0.523070096969604,0,7.86516955363702,1.12640154943069,44.9167202729348,2.89992416452431
"sub-MURIC212",15,1,"rating_alc_mindful",1,0.762889385223389,"Beer7.jpg","regulation","mindful attention","beta_0064",-0.504995876720775,0.709893465042114,0,7.86516955363702,1.12640154943069,-0.78909949045265,-0.0509460322720028
"sub-MURIC212",15,2,"rating_alc_mindful",4,0.457612007856369,"Liquor_X40.jpg","regulation","mindful attention","beta_0074",-9.83666012519998,1.80283296108246,0,7.86516955363702,1.12640154943069,-10.1207637389319,-0.653419197831654
"sub-MURIC212",15,3,"rating_alc_mindful",2,0.574248909950256,"Wine5.jpg","regulation","mindful attention","beta_0083",-4.47904832822384,1.44613206386566,0,7.86516955363702,1.12640154943069,-4.76315194195572,-0.307519768403513
"sub-MURIC212",15,4,"rating_alc_mindful",4,0.529358685016632,"Beer_X36.jpg","regulation","mindful attention","beta_0066",-28.0105199596507,0.176332473754883,0,7.86516955363702,1.12640154943069,-28.2946235733826,-1.82676433470618
"sub-MURIC212",16,1,"rating_alc_react",3,1.06351220607758,"Wine16.jpg","reactivity","mindful attention","beta_0082",-38.0011985543994,-0.791079342365265,0,-7.06005401555123,-1.01109781905514,-38.2853021681313,-2.47178494397727
"sub-MURIC212",16,2,"rating_alc_react",5,0.437713623046875,"Liquor26.jpg","reactivity","mindful attention","beta_0071",-13.0120754753962,0.685415089130402,0,-7.06005401555123,-1.01109781905514,-13.2961790891281,-0.858431132151002
"sub-MURIC212",16,3,"rating_alc_react",4,0.424772381782532,"Wine10.jpg","reactivity","mindful attention","beta_0081",-9.02667572763703,1.61548733711243,0,-7.06005401555123,-1.01109781905514,-9.31077934136891,-0.601124789132455
"sub-MURIC212",16,4,"rating_alc_react",5,0.318589597940445,"shutterstock_531124957.jpg","reactivity","mindful attention","beta_0085",3.51211683508776,-0.56861823797226,0,-7.06005401555123,-1.01109781905514,3.22801322135588,0.208407770806331
"sub-MURIC212",17,1,"rating_alc_react",4,0.425924122333527,"Liquor_X37.jpg","reactivity","mindful attention","beta_0073",-35.7829848648983,-0.154264464974403,0,-7.06005401555123,-1.01109781905514,-36.0670884786301,-2.3285720949274
"sub-MURIC212",17,2,"rating_alc_react",4,0.595278203487396,"Liquor_X42.jpg","reactivity","mindful attention","beta_0075",11.1661791819927,0.52555251121521,0,-7.06005401555123,-1.01109781905514,10.8820755682608,0.702571196401319
"sub-MURIC212",17,3,"rating_alc_react",5,0.525218904018402,"shutterstock_650326123.jpg","reactivity","mindful attention","beta_0086",-13.1297957405276,0.955893576145172,0,-7.06005401555123,-1.01109781905514,-13.4138993542595,-0.866031416397813
"sub-MURIC212",17,4,"rating_alc_react",4,0.445889204740524,"shutterstock_93461314.jpg","reactivity","mindful attention","beta_0087",4.51483247502355,1.49459934234619,0,-7.06005401555123,-1.01109781905514,4.23072886129168,0.273145340618355
"sub-MURIC212",19,1,"rating_alc_react",2,0.701943874359131,"Beer_X32.jpg","reactivity","mindful attention","beta_0099",-41.6170468685052,-0.4872205555439,0,-7.06005401555123,-1.01109781905514,-41.9011504822371,-2.70523221790141
"sub-MURIC212",19,2,"rating_alc_react",3,0.526548743247986,"Liquor8.jpg","reactivity","mindful attention","beta_0106",-11.3589634827348,-1.31053471565247,0,-7.06005401555123,-1.01109781905514,-11.6430670964667,-0.751702515612358
"sub-MURIC212",19,3,"rating_alc_react",3,0.463417381048203,"Liquor5.jpg","reactivity","mindful attention","beta_0105",19.8227593468196,-0.57239705324173,0,-7.06005401555123,-1.01109781905514,19.5386557330877,1.2614594199756
"sub-MURIC212",19,4,"rating_alc_react",4,0.379619568586349,"Beer20.jpg","reactivity","mindful attention","beta_0097",39.1126722658456,1.01234698295593,0,-7.06005401555123,-1.01109781905514,38.8285686521138,2.50685944619168
"sub-MURIC212",20,1,"rating_alc_mindful",2,0.714252352714539,"Beer_X33.jpg","regulation","mindful attention","beta_0100",9.12661003659831,0.71696525812149,0,7.86516955363702,1.12640154943069,8.84250642286644,0.570892039641707
"sub-MURIC212",20,2,"rating_alc_mindful",4,0.67564457654953,"Beer16.jpg","regulation","mindful attention","beta_0095",-25.5424426200013,0.007606241852045,0,7.86516955363702,1.12640154943069,-25.8265462337332,-1.66741972820612
"sub-MURIC212",20,3,"rating_alc_mindful",5,0.763197302818298,"Liquor10.jpg","regulation","mindful attention","beta_0102",9.98335896910133,0.728676676750183,0,7.86516955363702,1.12640154943069,9.69925535536945,0.626205671563159
"sub-MURIC212",20,4,"rating_alc_mindful",3,0.614661574363708,"shutterstock_354506048.jpg","regulation","mindful attention","beta_0118",37.4845572986207,1.55859041213989,0,7.86516955363702,1.12640154943069,37.2004536848888,2.40174469365877
"sub-MURIC212",22,1,"rating_alc_mindful",4,0.406609386205673,"Liquor18.jpg","regulation","mindful attention","beta_0103",-0.444974836549636,1.67135274410248,0,7.86516955363702,1.12640154943069,-0.729078450281511,-0.047070939350825
"sub-MURIC212",22,2,"rating_alc_mindful",3,0.436784207820892,"Beer19.jpg","regulation","mindful attention","beta_0096",11.6531229732173,0.210246503353119,0,7.86516955363702,1.12640154943069,11.3690193594854,0.734009379295277
"sub-MURIC212",22,3,"rating_alc_mindful",5,0.729911148548126,"Beer24.jpg","regulation","mindful attention","beta_0098",-3.02560664918932,-0.212418988347054,0,7.86516955363702,1.12640154943069,-3.3097102629212,-0.213682314975313
"sub-MURIC212",22,4,"rating_alc_mindful",5,0.424212098121643,"Wine29.jpg","regulation","mindful attention","beta_0115",-28.4958560957171,-0.345246732234955,0,7.86516955363702,1.12640154943069,-28.7799597094489,-1.85809872377874
"sub-MURIC212",23,1,"rating_alc_react",4,0.546759963035583,"Liquor25.jpg","reactivity","mindful attention","beta_0104",-19.0576718383967,0.491769969463348,0,-7.06005401555123,-1.01109781905514,-19.3417754521286,-1.24874838762946
"sub-MURIC212",23,2,"rating_alc_react",4,0.646932721138,"Wine14.jpg","reactivity","mindful attention","beta_0114",16.9247249643416,-0.512751460075378,0,-7.06005401555123,-1.01109781905514,16.6406213506097,1.07435582282284
"sub-MURIC212",23,3,"rating_alc_react",4,0.525189697742462,"Wine_X36.jpg","reactivity","mindful attention","beta_0117",12.4896606491958,0.682693541049957,0,-7.06005401555123,-1.01109781905514,12.205557035464,0.788018127181683
"sub-MURIC212",23,4,"rating_alc_react",2,0.687843203544617,"Wine6.jpg","reactivity","mindful attention","beta_0116",-20.2063199153741,-1.26445186138153,0,-7.06005401555123,-1.01109781905514,-20.490423529106,-1.32290768275876
"sub-MURIC213",1,1,"rating_alc_react",2,0.798885226249695,"Wine_X31.jpg","reactivity","perspective-taking","beta_0019",-1.94237303840479,-0.303555369377136,0,4.05512391950253,0.743168921447904,-2.94571108900614,-0.239433597232232
"sub-MURIC213",1,2,"rating_alc_react",1,1.09433555603027,"shutterstock_219740071.jpg","reactivity","perspective-taking","beta_0022",8.62333467748945,-0.606852531433105,0,4.05512391950253,0.743168921447904,7.6199966268881,0.619369363846491
"sub-MURIC213",1,3,"rating_alc_react",2,0.871150493621826,"Beer_X31.jpg","reactivity","perspective-taking","beta_0006",8.35091334142609,-0.795037746429443,0,4.05512391950253,0.743168921447904,7.34757529082474,0.597226384278706
"sub-MURIC213",1,4,"rating_alc_react",3,1.10049998760223,"shutterstock_489452248.jpg","reactivity","perspective-taking","beta_0023",2.25798677464906,-0.054697159677744,0,4.05512391950253,0.743168921447904,1.25464872404771,0.101980488983706
"sub-MURIC213",2,1,"rating_alc_react",4,0.837855219841003,"Liquor_X40.jpg","reactivity","perspective-taking","beta_0014",-0.991317804413755,0.081812046468258,0,4.05512391950253,0.743168921447904,-1.99465585501511,-0.162129826101763
"sub-MURIC213",2,2,"rating_alc_react",1,0.788783133029938,"Beer_X36.jpg","reactivity","perspective-taking","beta_0008",2.86116648229996,0.104713469743729,0,4.05512391950253,0.743168921447904,1.85782843169861,0.151008205150219
"sub-MURIC213",2,3,"rating_alc_react",1,0.732410073280334,"Beer7.jpg","reactivity","perspective-taking","beta_0005",17.6725593356745,-0.898684620857239,0,4.05512391950253,0.743168921447904,16.6692212850732,1.3549093902117
"sub-MURIC213",2,4,"rating_alc_react",2,0.72402036190033,"Wine5.jpg","reactivity","perspective-taking","beta_0017",13.3657301213473,-0.397051781415939,0,4.05512391950253,0.743168921447904,12.362392070746,1.00484124697123
"sub-MURIC213",5,1,"rating_alc_friend3",1,0.805568277835846,"Beer_X38.jpg","regulation","perspective-taking","beta_0009",-12.6800222007952,-0.007199349347502,0,-2.04844781829982,-0.37541214177123,-13.6833602513966,-1.11221232097198
