"pID","block_num","trial_num","trial_type","resp","rt","stimulus","trial_cond","condition","beta","dot","mean_signal","outlier"
"sub-MURIC201",1,1,"rating_alc_react",4,2.68599343299866,"Wine16.jpg","reactivity","control","beta_0020",-9.39484933000702,-0.220656111836433,0
"sub-MURIC201",1,2,"rating_alc_react",2,0.739437758922577,"Wine10.jpg","reactivity","control","beta_0019",-5.10206273077141,-0.155693382024765,0
"sub-MURIC201",1,3,"rating_alc_react",2,1.46303939819336,"shutterstock_531124957.jpg","reactivity","control","beta_0025",-5.52895581747027,0.278729856014252,0
"sub-MURIC201",1,4,"rating_alc_react",2,1.44237220287323,"Liquor26.jpg","reactivity","control","beta_0011",-12.5928542735473,0.249190524220467,0
"sub-MURIC201",2,1,"rating_alc_react",2,1.10779798030853,"Liquor18.jpg","reactivity","control","beta_0010",3.98932805318761,0.266445904970169,0
"sub-MURIC201",2,2,"rating_alc_react",1,0.790497660636902,"Beer24.jpg","reactivity","control","beta_0003",3.48768043956251,-0.630488812923431,0
"sub-MURIC201",2,3,"rating_alc_react",1,0.84617006778717,"Wine29.jpg","reactivity","control","beta_0022",11.1178725709799,-0.774026870727539,0
"sub-MURIC201",2,4,"rating_alc_react",1,0.896081924438477,"Beer19.jpg","reactivity","control","beta_0002",5.87049145181745,-0.35819000005722,0
"sub-MURIC201",4,1,"rating_alc_react",1,0.90458607673645,"shutterstock_506086420.jpg","reactivity","control","beta_0024",6.97851935252848,0.480921477079391,0
"sub-MURIC201",4,2,"rating_alc_react",2,1.35741424560547,"Liquor_X30.jpg","reactivity","control","beta_0012",-1.20182301485501,-0.665517807006836,0
"sub-MURIC201",4,3,"rating_alc_react",2,1.42349791526794,"Wine24.jpg","reactivity","control","beta_0021",-4.39812032755201,-0.631406545639038,0
"sub-MURIC201",4,4,"rating_alc_react",1,1.37333548069,"shutterstock_186172556.jpg","reactivity","control","beta_0023",9.76045044201196,-0.076543726027012,0
"sub-MURIC201",8,1,"rating_alc_react",1,1.62929105758667,"Liquor25.jpg","reactivity","control","beta_0039",-21.4463045960338,-0.188200891017914,0
"sub-MURIC201",8,2,"rating_alc_react",2,0.925293385982513,"Wine_X36.jpg","reactivity","control","beta_0054",-10.7982811748196,-0.592223525047302,0
"sub-MURIC201",8,3,"rating_alc_react",2,1.16424834728241,"Wine6.jpg","reactivity","control","beta_0052",8.41611301605672,0.007566469721496,0
"sub-MURIC201",8,4,"rating_alc_react",3,1.29684472084045,"Wine14.jpg","reactivity","control","beta_0049",9.13586474923872,-0.27994692325592,0
"sub-MURIC201",9,1,"rating_alc_react",3,0.780529320240021,"Wine18.jpg","reactivity","control","beta_0050",-0.69030866071103,-0.719460904598236,0
"sub-MURIC201",9,2,"rating_alc_react",1,0.894123256206512,"Beer_X37.jpg","reactivity","control","beta_0035",-24.0186502112277,-0.526334345340729,0
"sub-MURIC201",9,3,"rating_alc_react",2,0.86354660987854,"Wine22.jpg","reactivity","control","beta_0051",-19.7677377325382,0.066918358206749,0
"sub-MURIC201",9,4,"rating_alc_react",1,1.19060385227203,"Beer22.jpg","reactivity","control","beta_0033",-17.3813328915853,-0.70837140083313,0
"sub-MURIC201",12,1,"rating_alc_react",1,0.830375194549561,"Beer_X31.jpg","reactivity","control","beta_0034",-19.7253393262892,0.936858594417572,0
"sub-MURIC201",12,2,"rating_alc_react",1,0.814225018024445,"shutterstock_489452248.jpg","reactivity","control","beta_0056",-9.52442887313363,0.050309050828218,0
"sub-MURIC201",12,3,"rating_alc_react",1,0.930205881595612,"shutterstock_219740071.jpg","reactivity","control","beta_0055",-14.9493425479781,0.170960634946823,0
"sub-MURIC201",12,4,"rating_alc_react",3,0.574527382850647,"Wine_X31.jpg","reactivity","control","beta_0053",-30.7422368746166,0.317596405744553,0
"sub-MURIC201",13,1,"rating_alc_react",2,0.900550782680511,"Wine19.jpg","reactivity","control","beta_0085",-9.27064456350531,0.110246576368809,0
"sub-MURIC201",13,2,"rating_alc_react",1,1.71776401996613,"Beer27.jpg","reactivity","control","beta_0065",3.4057249176855,-0.467238575220108,0
"sub-MURIC201",13,3,"rating_alc_react",1,0.80811619758606,"Liquor_X39.jpg","reactivity","control","beta_0076",4.13721932588208,-0.506780087947845,0
"sub-MURIC201",13,4,"rating_alc_react",1,0.974762976169586,"shutterstock_629011190.jpg","reactivity","control","beta_0087",-6.78994613985128,1.10200238227844,0
"sub-MURIC201",14,1,"rating_alc_react",1,0.779999852180481,"Beer_X32.jpg","reactivity","control","beta_0066",-12.1687786114368,0.31493929028511,0
"sub-MURIC201",14,2,"rating_alc_react",2,0.847102403640747,"Liquor5.jpg","reactivity","control","beta_0073",-18.1153968474208,-0.272273659706116,0
"sub-MURIC201",14,3,"rating_alc_react",1,0.760535359382629,"Beer20.jpg","reactivity","control","beta_0064",-7.80538448205015,-0.436652094125748,0
"sub-MURIC201",14,4,"rating_alc_react",2,1.49238169193268,"Liquor8.jpg","reactivity","control","beta_0074",-1.91521711860765,-0.246706902980804,0
"sub-MURIC201",15,1,"rating_alc_react",1,0.975361168384552,"Liquor_X36.jpg","reactivity","control","beta_0075",-2.22767690572602,0.72113436460495,0
"sub-MURIC201",15,2,"rating_alc_react",1,0.579902648925781,"Beer_X34.jpg","reactivity","control","beta_0067",10.971294248403,0.294063895940781,0
"sub-MURIC201",15,3,"rating_alc_react",1,0.732491552829742,"Liquor19.jpg","reactivity","control","beta_0072",-0.862001696175934,0.653886318206787,0
"sub-MURIC201",15,4,"rating_alc_react",2,0.805665254592896,"Wine7.jpg","reactivity","control","beta_0086",11.0684542632441,-0.047725647687912,0
"sub-MURIC201",20,1,"rating_alc_react",1,0.757438659667969,"Beer6.jpg","reactivity","control","beta_0097",-4.76872608617876,0.5047886967659,0
"sub-MURIC201",20,2,"rating_alc_react",2,0.846117198467255,"Wine9.jpg","reactivity","control","beta_0116",-21.8979593424017,-0.373677790164948,0
"sub-MURIC201",20,3,"rating_alc_react",1,0.929589927196503,"Beer29.jpg","reactivity","control","beta_0096",-14.886959612842,0.031793978065252,0
"sub-MURIC201",20,4,"rating_alc_react",1,0.644324004650116,"shutterstock_747693556.jpg","reactivity","control","beta_0118",4.97145637178152,-0.017748961225152,0
"sub-MURIC201",21,1,"rating_alc_react",1,0.516212821006775,"Beer_X33.jpg","reactivity","control","beta_0099",14.7200818814704,-0.199908554553986,0
"sub-MURIC201",21,2,"rating_alc_react",2,0.874020576477051,"Liquor10.jpg","reactivity","control","beta_0104",10.2485905752844,-0.248880371451378,0
"sub-MURIC201",21,3,"rating_alc_react",1,0.787076890468597,"shutterstock_354506048.jpg","reactivity","control","beta_0117",2.64295686232564,-0.09020160138607,0
"sub-MURIC201",21,4,"rating_alc_react",1,0.839488208293915,"Beer16.jpg","reactivity","control","beta_0095",2.08427469298026,0.557556211948395,0
"sub-MURIC201",23,1,"rating_alc_react",1,1.74666202068329,"Beer7.jpg","reactivity","control","beta_0098",-7.27143080931151,0.151745364069939,0
"sub-MURIC201",23,2,"rating_alc_react",2,1.93032383918762,"Wine5.jpg","reactivity","control","beta_0115",15.2355630748133,-0.735894858837128,0
"sub-MURIC201",23,3,"rating_alc_react",1,1.56178903579712,"Beer_X36.jpg","reactivity","control","beta_0100",7.80258247596201,-0.52671080827713,0
"sub-MURIC201",23,4,"rating_alc_react",2,0.957715809345245,"Liquor_X40.jpg","reactivity","control","beta_0105",4.76300359776168,0.245067909359932,0
"sub-MURIC202",1,1,"rating_alc_react",4,0.969309151172638,"Wine7.jpg","reactivity","mindful attention","beta_0019",-9.59551297574536,0.516379475593567,0
"sub-MURIC202",1,2,"rating_alc_react",2,0.663246631622314,"Liquor19.jpg","reactivity","mindful attention","beta_0012",-14.6864612135124,0.06800452619791,0
"sub-MURIC202",1,3,"rating_alc_react",3,0.754908382892609,"Beer_X34.jpg","reactivity","mindful attention","beta_0006",-7.93084497758793,0.097921960055828,0
"sub-MURIC202",1,4,"rating_alc_react",4,0.613407492637634,"Liquor_X36.jpg","reactivity","mindful attention","beta_0013",-16.2164083262876,0.488403409719467,0
"sub-MURIC202",2,1,"rating_alc_mindful",2,1.34190273284912,"shutterstock_747693556.jpg","regulation","mindful attention","beta_0025",1.92213840394991,0.832605838775635,0
"sub-MURIC202",2,2,"rating_alc_mindful",3,1.39695048332214,"Beer29.jpg","regulation","mindful attention","beta_0003",9.79499927980486,0.724806725978851,0
"sub-MURIC202",2,3,"rating_alc_mindful",2,0.863767802715302,"Wine9.jpg","regulation","mindful attention","beta_0020",0.159488699279217,0.528599143028259,0
"sub-MURIC202",2,4,"rating_alc_mindful",1,1.25732493400574,"Beer6.jpg","regulation","mindful attention","beta_0004",9.32603979645487,0.150788888335228,0
"sub-MURIC202",3,1,"rating_alc_mindful",3,0.864563882350922,"Beer_X38.jpg","regulation","mindful attention","beta_0007",11.5408455201006,0.427077442407608,0
"sub-MURIC202",3,2,"rating_alc_mindful",2,0.907811224460602,"shutterstock_194729426.jpg","regulation","mindful attention","beta_0022",27.1274211951791,0.556558728218079,0
"sub-MURIC202",3,3,"rating_alc_mindful",2,1.70464825630188,"Wine_X33.jpg","regulation","mindful attention","beta_0021",11.035923540458,0.714339196681976,0
"sub-MURIC202",3,4,"rating_alc_mindful",3,0.70503830909729,"shutterstock_54126199.jpg","regulation","mindful attention","beta_0024",-8.0457833352754,0.40075808763504,0
"sub-MURIC202",6,1,"rating_alc_react",2,0.579432785511017,"Beer16.jpg","reactivity","mindful attention","beta_0002",-10.6466684507358,0.475675851106644,0
"sub-MURIC202",6,2,"rating_alc_react",3,0.613300323486328,"shutterstock_354506048.jpg","reactivity","mindful attention","beta_0023",-17.9592116102428,0.491629391908646,0
"sub-MURIC202",6,3,"rating_alc_react",3,0.546107769012451,"Liquor10.jpg","reactivity","mindful attention","beta_0011",-16.5562042080113,0.583325028419495,0
"sub-MURIC202",6,4,"rating_alc_react",2,0.479861170053482,"Beer_X33.jpg","reactivity","mindful attention","beta_0005",-1.49124154642163,-0.026128642261028,0
"sub-MURIC202",7,1,"rating_alc_react",3,0.792222678661346,"Liquor_X40.jpg","reactivity","mindful attention","beta_0044",-5.61456608791037,0.169304445385933,0
"sub-MURIC202",7,2,"rating_alc_react",2,0.792094349861145,"Beer_X36.jpg","reactivity","mindful attention","beta_0038",-13.2644640614104,0.294411331415176,0
"sub-MURIC202",7,3,"rating_alc_react",3,0.712571978569031,"Wine5.jpg","reactivity","mindful attention","beta_0053",14.9473153859392,-0.262921690940857,0
"sub-MURIC202",7,4,"rating_alc_react",2,1.11229872703552,"Beer7.jpg","reactivity","mindful attention","beta_0036",7.73630360158968,-0.034343980252743,0
"sub-MURIC202",8,1,"rating_alc_mindful",3,1.1936662197113,"Liquor26.jpg","regulation","mindful attention","beta_0041",17.94522423018,0.326111197471619,0
"sub-MURIC202",8,2,"rating_alc_mindful",2,1.35983836650848,"shutterstock_531124957.jpg","regulation","mindful attention","beta_0055",5.05523593859873,-0.024968422949314,0
"sub-MURIC202",8,3,"rating_alc_mindful",4,0.49599227309227,"Wine10.jpg","regulation","mindful attention","beta_0051",-13.0865601100267,0.047821193933487,0
"sub-MURIC202",8,4,"rating_alc_mindful",2,0.546912550926208,"Wine16.jpg","regulation","mindful attention","beta_0052",19.9273829406627,0.026264457032084,0
"sub-MURIC202",11,1,"rating_alc_react",2,0.628897070884705,"shutterstock_59587495.jpg","reactivity","mindful attention","beta_0056",-18.0512388538328,0.084864214062691,0
"sub-MURIC202",11,2,"rating_alc_react",1,0.708344697952271,"Beer14.jpg","reactivity","mindful attention","beta_0035",-33.314405356509,-0.111560679972172,0
"sub-MURIC202",11,3,"rating_alc_react",3,0.407845556735992,"Wine8.jpg","reactivity","mindful attention","beta_0054",-7.25197390433398,0.431591898202896,0
"sub-MURIC202",11,4,"rating_alc_react",3,0.474948555231094,"Beer1.jpg","reactivity","mindful attention","beta_0033",0.99594661296105,0.153345003724098,0
"sub-MURIC202",12,1,"rating_alc_mindful",3,0.523367166519165,"Beer13.jpg","regulation","mindful attention","beta_0034",10.7016541520267,-0.134063869714737,0
"sub-MURIC202",12,2,"rating_alc_mindful",2,1.20802390575409,"Beer_X35.jpg","regulation","mindful attention","beta_0037",9.97189636108557,-0.34758934378624,0
"sub-MURIC202",12,3,"rating_alc_mindful",1,0.462463408708572,"Liquor_X32.jpg","regulation","mindful attention","beta_0043",6.61765011936238,-0.04027383774519,0
"sub-MURIC202",12,4,"rating_alc_mindful",2,0.791264593601227,"Liquor_X31.jpg","regulation","mindful attention","beta_0042",12.9894225136639,-0.082940086722374,0
"sub-MURIC202",14,1,"rating_alc_react",3,0.896925568580627,"Beer22.jpg","reactivity","mindful attention","beta_0065",0.534369894037764,0.52884316444397,0
"sub-MURIC202",14,2,"rating_alc_react",4,0.908636868000031,"Wine22.jpg","reactivity","mindful attention","beta_0084",5.84845814837985,-0.228582814335823,0
"sub-MURIC202",14,3,"rating_alc_react",2,1.74025022983551,"Beer_X37.jpg","reactivity","mindful attention","beta_0068",-0.245680327985532,-0.150424644351006,0
"sub-MURIC202",14,4,"rating_alc_react",3,0.630932569503784,"Wine18.jpg","reactivity","mindful attention","beta_0082",5.16612020735202,-0.268677592277527,0
"sub-MURIC202",15,1,"rating_alc_mindful",2,0.790955007076263,"Wine14.jpg","regulation","mindful attention","beta_0081",16.8546622294933,0.118045173585415,0
"sub-MURIC202",15,2,"rating_alc_mindful",1,1.8060108423233,"Wine6.jpg","regulation","mindful attention","beta_0085",27.1599333387155,-0.440490573644638,0
"sub-MURIC202",15,3,"rating_alc_mindful",2,0.974607527256012,"Wine_X36.jpg","regulation","mindful attention","beta_0086",6.79803737367474,0.229200601577759,0
"sub-MURIC202",15,4,"rating_alc_mindful",1,0.485857039690018,"Liquor25.jpg","regulation","mindful attention","beta_0072",-1.15931572342299,0.213821992278099,0
"sub-MURIC202",16,1,"rating_alc_react",2,0.809447407722473,"shutterstock_629011190.jpg","reactivity","mindful attention","beta_0087",-4.5228668022082,0.318240493535995,0
"sub-MURIC202",16,2,"rating_alc_react",3,0.614492654800415,"Liquor_X39.jpg","reactivity","mindful attention","beta_0075",7.31286989080737,0.142473086714745,0
"sub-MURIC202",16,3,"rating_alc_react",2,0.596252799034119,"Beer27.jpg","reactivity","mindful attention","beta_0066",-12.3899722872723,-0.105348773300648,0
"sub-MURIC202",16,4,"rating_alc_react",1,0.547386288642883,"Wine19.jpg","reactivity","mindful attention","beta_0083",5.60319948463002,-0.313060969114304,0
"sub-MURIC202",18,1,"rating_alc_mindful",2,0.773496389389038,"Liquor8.jpg","regulation","mindful attention","beta_0074",2.08379979042091,0.155701994895935,0
"sub-MURIC202",18,2,"rating_alc_mindful",2,0.805503249168396,"Beer20.jpg","regulation","mindful attention","beta_0064",26.2913798098556,-0.023750932887197,0
"sub-MURIC202",18,3,"rating_alc_mindful",3,0.889689922332764,"Liquor5.jpg","regulation","mindful attention","beta_0073",19.7332078181556,0.192097365856171,0
"sub-MURIC202",18,4,"rating_alc_mindful",2,0.940878331661224,"Beer_X32.jpg","regulation","mindful attention","beta_0067",22.9941877165797,0.256927132606506,0
"sub-MURIC202",19,1,"rating_alc_mindful",2,0.713876366615295,"Wine_X32.jpg","regulation","mindful attention","beta_0114",-11.4419396224565,-0.210121273994446,0
"sub-MURIC202",19,2,"rating_alc_mindful",1,0.596087574958801,"Beer12.jpg","regulation","mindful attention","beta_0095",4.99941487948475,0.308050721883774,0
"sub-MURIC202",19,3,"rating_alc_mindful",3,1.05785155296326,"Liquor_X33.jpg","regulation","mindful attention","beta_0104",-4.68912527739896,0.238709017634392,0
"sub-MURIC202",19,4,"rating_alc_mindful",1,0.591903388500214,"Beer9.jpg","regulation","mindful attention","beta_0099",14.3560906119373,0.372462898492813,0
"sub-MURIC202",21,1,"rating_alc_react",3,1.70339620113373,"Liquor_X42.jpg","reactivity","mindful attention","beta_0106",4.34721278263888,0.114622086286545,0
"sub-MURIC202",21,2,"rating_alc_react",2,0.480128884315491,"shutterstock_93461314.jpg","reactivity","mindful attention","beta_0118",8.94527215687686,-0.061999645084143,0
"sub-MURIC202",21,3,"rating_alc_react",1,0.499692171812057,"shutterstock_650326123.jpg","reactivity","mindful attention","beta_0117",6.6721043979515,-0.110554099082947,0
"sub-MURIC202",21,4,"rating_alc_react",4,0.429413467645645,"Liquor_X37.jpg","reactivity","mindful attention","beta_0105",-37.482756330252,-0.209772869944572,0
"sub-MURIC202",22,1,"rating_alc_react",2,1.45767247676849,"Beer19.jpg","reactivity","mindful attention","beta_0096",-12.5760812034175,0.361885607242584,0
"sub-MURIC202",22,2,"rating_alc_react",3,0.825167834758759,"Wine29.jpg","reactivity","mindful attention","beta_0113",-35.9423451163796,0.136155098676682,0
"sub-MURIC202",22,3,"rating_alc_react",2,1.56361556053162,"Beer24.jpg","reactivity","mindful attention","beta_0097",-5.94033771040873,-0.092909790575504,0
"sub-MURIC202",22,4,"rating_alc_react",3,0.62951934337616,"Liquor18.jpg","reactivity","mindful attention","beta_0103",-0.051805638724675,0.445717930793762,0
"sub-MURIC202",24,1,"rating_alc_mindful",3,1.21554589271545,"shutterstock_227045194.jpg","regulation","mindful attention","beta_0115",27.2090910335941,0.100407287478447,0
"sub-MURIC202",24,2,"rating_alc_mindful",2,0.641009271144867,"shutterstock_518689462.jpg","regulation","mindful attention","beta_0116",22.930416194883,-0.196276620030403,0
"sub-MURIC202",24,3,"rating_alc_mindful",2,0.955798447132111,"Beer30.jpg","regulation","mindful attention","beta_0098",17.6091113499876,-0.35115572810173,0
"sub-MURIC202",24,4,"rating_alc_mindful",1,0.49678036570549,"Liquor16.jpg","regulation","mindful attention","beta_0102",-5.32942466303572,0.247440069913864,0
"sub-MURIC203",2,1,"rating_alc_react",1,0.612734854221344,"Wine10.jpg","reactivity","control","beta_0020",-8.8992797970043,0.232762098312378,0
"sub-MURIC203",2,2,"rating_alc_react",1,0.496874243021011,"Wine16.jpg","reactivity","control","beta_0021",-6.88073822375836,-0.058856070041656,0
"sub-MURIC203",2,3,"rating_alc_react",2,0.546736776828766,"Liquor26.jpg","reactivity","control","beta_0011",-7.48880028773425,-0.007469607982785,0
"sub-MURIC203",2,4,"rating_alc_react",1,0.791918992996216,"shutterstock_531124957.jpg","reactivity","control","beta_0023",-3.95486531728875,-0.226498037576675,0
"sub-MURIC203",5,1,"rating_alc_react",3,0.6631098985672,"Beer24.jpg","reactivity","control","beta_0003",-12.732391156705,0.162410005927086,0
"sub-MURIC203",5,2,"rating_alc_react",1,0.424931108951569,"Liquor18.jpg","reactivity","control","beta_0010",-7.15755636430304,0.250321269035339,0
"sub-MURIC203",5,3,"rating_alc_react",3,1.07517111301422,"Beer19.jpg","reactivity","control","beta_0002",10.251199238888,1.21193087100983,0
"sub-MURIC203",5,4,"rating_alc_react",1,1.03093993663788,"Wine29.jpg","reactivity","control","beta_0022",-10.6864897798312,-0.158669531345367,0
"sub-MURIC203",6,1,"rating_alc_react",3,0.615908086299896,"shutterstock_650326123.jpg","reactivity","control","beta_0024",-1.83649851237591,-0.32987916469574,0
"sub-MURIC203",6,2,"rating_alc_react",3,0.639767348766327,"Liquor_X37.jpg","reactivity","control","beta_0012",5.4339569645199,0.798317551612854,0
"sub-MURIC203",6,3,"rating_alc_react",2,0.823790729045868,"Liquor_X42.jpg","reactivity","control","beta_0013",-14.3138361570116,-0.090296007692814,0
"sub-MURIC203",6,4,"rating_alc_react",1,1.20651185512543,"shutterstock_93461314.jpg","reactivity","control","beta_0025",0.15719307156244,-0.24359530210495,0
"sub-MURIC203",7,1,"rating_alc_react",1,0.580150544643402,"Wine5.jpg","reactivity","control","beta_0051",-1.3592404051976,-0.036866117268801,0
"sub-MURIC203",7,2,"rating_alc_react",3,0.863271534442902,"Beer7.jpg","reactivity","control","beta_0035",-8.51081455417757,-0.216070771217346,0
"sub-MURIC203",7,3,"rating_alc_react",2,0.946440756320953,"Liquor_X40.jpg","reactivity","control","beta_0042",2.145836383243,0.092427909374237,0
"sub-MURIC203",7,4,"rating_alc_react",3,0.887343406677246,"Beer_X36.jpg","reactivity","control","beta_0037",8.22390788438637,0.528748273849487,0
"sub-MURIC203",9,1,"rating_alc_react",2,1.01211214065552,"shutterstock_489452248.jpg","reactivity","control","beta_0055",-4.2333845390619,-0.083330035209656,0
"sub-MURIC203",9,2,"rating_alc_react",3,0.696176469326019,"Beer_X31.jpg","reactivity","control","beta_0036",-7.8633412761398,0.115710876882076,0
"sub-MURIC203",9,3,"rating_alc_react",1,0.713457703590393,"Wine_X31.jpg","reactivity","control","beta_0053",-15.5471484496676,0.304237693548203,0
"sub-MURIC203",9,4,"rating_alc_react",3,0.913466393947601,"shutterstock_219740071.jpg","reactivity","control","beta_0054",9.57294405469235,-0.383662819862366,0
"sub-MURIC203",10,1,"rating_alc_react",1,0.891451358795166,"Wine8.jpg","reactivity","control","beta_0052",15.4049899588592,0.014885856769979,0
"sub-MURIC203",10,2,"rating_alc_react",3,0.662959694862366,"Beer1.jpg","reactivity","control","beta_0033",-14.0937288266282,-0.048534203320742,0
"sub-MURIC203",10,3,"rating_alc_react",3,0.812453866004944,"shutterstock_59587495.jpg","reactivity","control","beta_0056",-8.65298577857834,0.140439182519913,0
"sub-MURIC203",10,4,"rating_alc_react",3,0.790830612182617,"Beer14.jpg","reactivity","control","beta_0034",-4.25785186874506,0.414181500673294,0
"sub-MURIC203",14,1,"rating_alc_react",1,0.597003877162933,"Liquor_X30.jpg","reactivity","control","beta_0068",-7.96884556519819,0.634121358394623,0
"sub-MURIC203",14,2,"rating_alc_react",1,1.27924072742462,"shutterstock_506086420.jpg","reactivity","control","beta_0086",-5.15725890970811,0.18936850130558,0
"sub-MURIC203",14,3,"rating_alc_react",3,0.610051274299622,"shutterstock_186172556.jpg","reactivity","control","beta_0084",-1.6288498596452,0.11069917678833,0
"sub-MURIC203",14,4,"rating_alc_react",1,0.779277861118317,"Wine24.jpg","reactivity","control","beta_0081",-12.9802510545714,0.606094717979431,0
"sub-MURIC203",15,1,"rating_alc_react",3,0.779722511768341,"Beer_X34.jpg","reactivity","control","beta_0064",-1.1856569029632,0.585228800773621,0
"sub-MURIC203",15,2,"rating_alc_react",3,0.696931958198547,"Liquor_X36.jpg","reactivity","control","beta_0069",-0.361184656884376,0.321529984474182,0
"sub-MURIC203",15,3,"rating_alc_react",1,0.992248475551605,"Wine7.jpg","reactivity","control","beta_0082",15.3021921559057,0.441434741020203,0
"sub-MURIC203",15,4,"rating_alc_react",2,0.77406108379364,"Liquor19.jpg","reactivity","control","beta_0067",-11.2087808491243,0.038687858730555,0
"sub-MURIC203",17,1,"rating_alc_react",1,1.09071815013885,"Wine_X33.jpg","reactivity","control","beta_0083",-17.0957107732535,-0.07072402536869,0
"sub-MURIC203",17,2,"rating_alc_react",1,0.9869105219841,"shutterstock_54126199.jpg","reactivity","control","beta_0087",19.0614629264468,0.150580629706383,0
"sub-MURIC203",17,3,"rating_alc_react",3,0.645085752010345,"Beer_X38.jpg","reactivity","control","beta_0065",-3.00127434687673,0.14332902431488,0
"sub-MURIC203",17,4,"rating_alc_react",1,0.774289548397064,"shutterstock_194729426.jpg","reactivity","control","beta_0085",5.45010865423973,0.59555858373642,0
"sub-MURIC203",19,1,"rating_alc_react",2,0.313098788261414,"Liquor_X33.jpg","reactivity","control","beta_0108",-0.960276243607683,0.114980705082417,0
"sub-MURIC203",19,2,"rating_alc_react",3,0.529978334903717,"Beer9.jpg","reactivity","control","beta_0098",5.51362364929034,0.959381818771362,0
"sub-MURIC203",19,3,"rating_alc_react",1,0.529541730880737,"Wine_X32.jpg","reactivity","control","beta_0118",-5.51633211778664,0.222104951739311,0
"sub-MURIC203",19,4,"rating_alc_react",3,0.925453305244446,"Beer12.jpg","reactivity","control","beta_0095",-4.26154777278727,-0.166737422347069,0
"sub-MURIC203",20,1,"rating_alc_react",1,1.21271109580994,"Liquor5.jpg","reactivity","control","beta_0106",-18.5949994982123,0.093922518193722,0
"sub-MURIC203",20,2,"rating_alc_react",3,0.379390031099319,"Beer_X32.jpg","reactivity","control","beta_0099",-10.0994996689867,1.2682044506073,0
"sub-MURIC203",20,3,"rating_alc_react",2,0.514282822608948,"Liquor8.jpg","reactivity","control","beta_0107",3.33247119356237,0.663118302822113,0
"sub-MURIC203",20,4,"rating_alc_react",2,0.831185579299927,"Beer20.jpg","reactivity","control","beta_0096",-15.4687732959753,0.181802615523338,0
"sub-MURIC203",22,1,"rating_alc_react",3,0.708751201629639,"Beer_X37.jpg","reactivity","control","beta_0100",-3.72243206747929,-0.390973091125488,0
"sub-MURIC203",22,2,"rating_alc_react",1,0.837968707084656,"Wine18.jpg","reactivity","control","beta_0116",-8.46478948311933,0.135876849293709,0
"sub-MURIC203",22,3,"rating_alc_react",3,0.746673762798309,"Beer22.jpg","reactivity","control","beta_0097",-20.1730179086197,0.04231259226799,0
"sub-MURIC203",22,4,"rating_alc_react",1,0.746618032455444,"Wine22.jpg","reactivity","control","beta_0117",-8.30602085938115,-0.130477219820023,0
"sub-MURIC205",2,1,"rating_alc_friend3",1,0.969698488712311,"Liquor25.jpg","regulation","perspective-taking","beta_0011",-10.0618296238842,0.217130854725838,0
"sub-MURIC205",2,2,"rating_alc_friend3",2,1.14256393909454,"Wine_X36.jpg","regulation","perspective-taking","beta_0022",-11.8180837282494,0.716122090816498,0
"sub-MURIC205",2,3,"rating_alc_friend3",1,1.42063438892365,"Wine14.jpg","regulation","perspective-taking","beta_0018",-5.80287622296153,0.603752791881561,0
"sub-MURIC205",2,4,"rating_alc_friend3",1,1.38531112670898,"Wine6.jpg","regulation","perspective-taking","beta_0020",7.9491637186971,0.751809060573578,0
"sub-MURIC205",3,1,"rating_alc_react",5,1.36562967300415,"Liquor_X37.jpg","reactivity","perspective-taking","beta_0013",-6.9728813366149,-0.028591360896826,0
"sub-MURIC205",3,2,"rating_alc_react",5,0.84450763463974,"shutterstock_650326123.jpg","reactivity","perspective-taking","beta_0024",-4.93297920924947,0.444261908531189,0
"sub-MURIC205",3,3,"rating_alc_react",3,1.0547730922699,"Liquor_X42.jpg","reactivity","perspective-taking","beta_0015",-0.71921373564185,0.453727692365646,0
"sub-MURIC205",3,4,"rating_alc_react",2,1.21063137054443,"shutterstock_93461314.jpg","reactivity","perspective-taking","beta_0025",-3.41098454797609,0.364144563674927,0
"sub-MURIC205",6,1,"rating_alc_react",3,1.05300557613373,"Beer9.jpg","reactivity","perspective-taking","beta_0005",-7.34528349955152,0.119334526360035,0
"sub-MURIC205",6,2,"rating_alc_react",3,0.937395215034485,"Liquor_X33.jpg","reactivity","perspective-taking","beta_0012",10.4104055308887,0.104180857539177,0
"sub-MURIC205",6,3,"rating_alc_react",2,0.772911906242371,"Wine_X32.jpg","reactivity","perspective-taking","beta_0021",0.716340238088564,0.521424174308777,0
"sub-MURIC205",6,4,"rating_alc_react",2,0.568559050559998,"Beer12.jpg","reactivity","perspective-taking","beta_0002",-10.7214963554692,0.365003347396851,0
"sub-MURIC205",7,1,"rating_alc_friend3",1,0.660108864307404,"Liquor16.jpg","regulation","perspective-taking","beta_0037",-0.277916982457905,0.100301265716553,0
"sub-MURIC205",7,2,"rating_alc_friend3",1,0.739319980144501,"Beer30.jpg","regulation","perspective-taking","beta_0033",-8.65275839863239,-0.246716648340225,0
"sub-MURIC205",7,3,"rating_alc_friend3",1,0.838400542736053,"shutterstock_227045194.jpg","regulation","perspective-taking","beta_0053",-5.78979365172053,0.59608668088913,0
"sub-MURIC205",7,4,"rating_alc_friend3",2,1.01089477539062,"shutterstock_518689462.jpg","regulation","perspective-taking","beta_0055",9.761691753444,-0.271679252386093,0
"sub-MURIC205",9,1,"rating_alc_react",4,0.786286592483521,"Liquor_X36.jpg","reactivity","perspective-taking","beta_0041",-21.0400849287045,1.36097276210785,0
"sub-MURIC205",9,2,"rating_alc_react",2,0.590239524841309,"Beer_X34.jpg","reactivity","perspective-taking","beta_0034",9.1031375056842,0.108329430222511,0
"sub-MURIC205",9,3,"rating_alc_react",1,0.722335338592529,"Wine7.jpg","reactivity","perspective-taking","beta_0051",-1.28343464564237,-0.108256787061691,0
"sub-MURIC205",9,4,"rating_alc_react",4,0.939797103404999,"Liquor19.jpg","reactivity","perspective-taking","beta_0038",-4.1264566419903,-0.055256623774767,0
"sub-MURIC205",10,1,"rating_alc_friend3",1,0.542866230010986,"Wine16.jpg","regulation","perspective-taking","beta_0049",0.519801087790126,-1.76089119911194,0
"sub-MURIC205",10,2,"rating_alc_friend3",1,1.11020421981812,"Wine10.jpg","regulation","perspective-taking","beta_0048",7.8359068336009,0.305147260427475,0
"sub-MURIC205",10,3,"rating_alc_friend3",2,0.556735038757324,"Liquor26.jpg","regulation","perspective-taking","beta_0039",-8.30330955717612,-0.164779469370842,0
"sub-MURIC205",10,4,"rating_alc_friend3",2,0.640273571014404,"shutterstock_531124957.jpg","regulation","perspective-taking","beta_0056",-2.99232140854888,0.711016118526459,0
"sub-MURIC205",17,1,"rating_alc_friend4",1,0.540942907333374,"Beer_X32.jpg","regulation","perspective-taking","beta_0068",-0.665697605083241,0.937346935272217,0
"sub-MURIC205",17,2,"rating_alc_friend4",2,0.675668179988861,"Liquor5.jpg","regulation","perspective-taking","beta_0073",-8.4390790437322,0.149183362722397,0
"sub-MURIC205",17,3,"rating_alc_friend4",1,1.36122500896454,"Liquor8.jpg","regulation","perspective-taking","beta_0074",3.19540369278549,-0.259749352931976,0
"sub-MURIC205",17,4,"rating_alc_friend4",1,1.30435228347778,"Beer20.jpg","regulation","perspective-taking","beta_0065",-1.06190214995246,0.644118845462799,0
"sub-MURIC205",18,1,"rating_alc_react",2,0.620370447635651,"shutterstock_54126199.jpg","reactivity","perspective-taking","beta_0087",-9.31207908632522,0.195095807313919,0
"sub-MURIC205",18,2,"rating_alc_react",2,0.782552540302277,"Wine_X33.jpg","reactivity","perspective-taking","beta_0083",-7.98447562253034,0.283371865749359,0
"sub-MURIC205",18,3,"rating_alc_react",2,1.75274014472961,"Beer_X38.jpg","reactivity","perspective-taking","beta_0069",7.71719641069706,-0.494879275560379,0
"sub-MURIC205",18,4,"rating_alc_react",2,0.572327136993408,"shutterstock_194729426.jpg","reactivity","perspective-taking","beta_0084",-0.993825336317256,0.170701548457146,0
"sub-MURIC205",19,1,"rating_alc_react",3,1.31090927124023,"Beer1.jpg","reactivity","perspective-taking",NA,NA,NA,NA
"sub-MURIC205",19,2,"rating_alc_react",1,0.594609498977661,"Wine8.jpg","reactivity","perspective-taking","beta_0114",-16.5468356714096,0.623447418212891,0
"sub-MURIC205",19,3,"rating_alc_react",3,0.628004252910614,"shutterstock_59587495.jpg","reactivity","perspective-taking","beta_0116",13.911422814932,0.642007529735565,0
"sub-MURIC205",19,4,"rating_alc_react",3,1.01084017753601,"Beer14.jpg","reactivity","perspective-taking","beta_0097",17.6594274300313,-1.41570854187012,0
"sub-MURIC205",22,1,"rating_alc_friend4",1,0.575340509414673,"Liquor_X31.jpg","regulation","perspective-taking","beta_0106",-9.87688940934471,-0.179483503103256,0
"sub-MURIC205",22,2,"rating_alc_friend4",1,1.1042332649231,"Liquor_X32.jpg","regulation","perspective-taking","beta_0107",7.49816554251383,-1.81981670856476,0
"sub-MURIC205",22,3,"rating_alc_friend4",1,0.81859278678894,"Beer13.jpg","regulation","perspective-taking","beta_0096",-11.2744581442843,0.790809988975525,0
"sub-MURIC205",22,4,"rating_alc_friend4",1,0.63830691576004,"Beer_X35.jpg","regulation","perspective-taking","beta_0102",6.95142486192517,0.163047552108765,0
"sub-MURIC205",23,1,"rating_alc_friend4",1,0.639671683311462,"Beer6.jpg","regulation","perspective-taking","beta_0101",-12.5470775218676,0.887681782245636,0
"sub-MURIC205",23,2,"rating_alc_friend4",1,0.670708060264587,"Wine9.jpg","regulation","perspective-taking","beta_0115",-1.31071035312994,1.67623710632324,0
"sub-MURIC205",23,3,"rating_alc_friend4",1,1.23462212085724,"shutterstock_747693556.jpg","regulation","perspective-taking","beta_0118",-22.2285633005167,1.15822017192841,0
"sub-MURIC205",23,4,"rating_alc_friend4",1,0.701869070529938,"Beer29.jpg","regulation","perspective-taking","beta_0100",0.71480847103048,0.49947851896286,0
"sub-MURIC205",24,1,"rating_alc_react",1,1.05376195907593,"Wine18.jpg","reactivity","perspective-taking","beta_0111",3.34025246542131,-1.36775231361389,0
"sub-MURIC205",24,2,"rating_alc_react",3,0.790477097034454,"Beer_X37.jpg","reactivity","perspective-taking","beta_0103",11.4854355529805,-1.58065736293793,0
"sub-MURIC205",24,3,"rating_alc_react",2,0.64461225271225,"Beer22.jpg","reactivity","perspective-taking","beta_0098",4.65867023656175,1.73751962184906,0
"sub-MURIC205",24,4,"rating_alc_react",1,0.587626039981842,"Wine22.jpg","reactivity","perspective-taking","beta_0113",-2.0454997681181,0.305799007415771,0
"sub-MURIC208",5,1,"rating_alc_friend3",3,0.822487235069275,"Wine19.jpg","regulation","perspective-taking","beta_0018",-1.50471807450347,0.567637205123901,0
"sub-MURIC208",5,2,"rating_alc_friend3",3,0.709198236465454,"Liquor_X39.jpg","regulation","perspective-taking","beta_0010",12.2039287300685,0.496285855770111,0
"sub-MURIC208",5,3,"rating_alc_friend3",3,0.559733390808105,"shutterstock_629011190.jpg","regulation","perspective-taking","beta_0023",2.33407792768304,0.475315183401108,0
"sub-MURIC208",5,4,"rating_alc_friend3",2,0.52642434835434,"Beer27.jpg","regulation","perspective-taking","beta_0004",-10.9669023349876,0.811642169952393,0
"sub-MURIC208",6,1,"rating_alc_react",2,0.460789680480957,"Liquor25.jpg","reactivity","perspective-taking","beta_0008",2.58705859037881,1.13477611541748,0
"sub-MURIC208",6,2,"rating_alc_react",2,0.42582231760025,"Wine6.jpg","reactivity","perspective-taking","beta_0019",-40.6479298712001,-1.14089071750641,0
"sub-MURIC208",6,3,"rating_alc_react",2,0.772773802280426,"Wine14.jpg","reactivity","perspective-taking","beta_0017",-20.6847033943917,0.980663895606995,0
"sub-MURIC208",6,4,"rating_alc_react",2,1.30592358112335,"Wine_X36.jpg","reactivity","perspective-taking","beta_0021",-24.2495706668019,-0.940914273262024,0
"sub-MURIC208",8,1,"rating_alc_friend3",3,0.538568437099457,"shutterstock_506086420.jpg","regulation","perspective-taking","beta_0055",-6.67379510836556,0.517284154891968,0
"sub-MURIC208",8,2,"rating_alc_friend3",2,0.388625115156174,"Wine24.jpg","regulation","perspective-taking","beta_0050",-0.786004917585728,-0.457852065563202,0
"sub-MURIC208",8,3,"rating_alc_friend3",3,1.16030097007751,"shutterstock_186172556.jpg","regulation","perspective-taking","beta_0052",7.45757799720405,0.348409384489059,0
"sub-MURIC208",8,4,"rating_alc_friend3",4,0.543524146080017,"Liquor_X30.jpg","regulation","perspective-taking","beta_0040",-9.7326526491865,0.512619376182556,0
"sub-MURIC208",9,1,"rating_alc_react",2,1.01071357727051,"Liquor_X31.jpg","reactivity","perspective-taking","beta_0041",-9.41222236705827,0.766869068145752,0
"sub-MURIC208",9,2,"rating_alc_react",3,0.623485684394836,"Beer_X35.jpg","reactivity","perspective-taking","beta_0036",10.1211616567491,0.680949807167053,0
"sub-MURIC208",9,3,"rating_alc_react",3,0.443633794784546,"Beer13.jpg","reactivity","perspective-taking","beta_0033",-14.2357460378948,0.953042984008789,0
"sub-MURIC208",9,4,"rating_alc_react",2,0.468064546585083,"Liquor_X32.jpg","reactivity","perspective-taking","beta_0042",-17.5772647331496,-0.726792812347412,0
"sub-MURIC208",10,1,"rating_alc_react",1,0.568748533725739,"Wine16.jpg","reactivity","perspective-taking","beta_0047",-3.30312567894525,1.16318809986115,0
"sub-MURIC208",10,2,"rating_alc_react",1,0.786226868629456,"shutterstock_531124957.jpg","reactivity","perspective-taking","beta_0056",-9.79452416012508,0.521706104278564,0
"sub-MURIC208",10,3,"rating_alc_react",3,0.816069364547729,"Liquor26.jpg","reactivity","perspective-taking","beta_0039",-1.61498566461385,0.924825489521027,0
"sub-MURIC208",10,4,"rating_alc_react",1,1.30605411529541,"Wine10.jpg","reactivity","perspective-taking","beta_0046",4.84849578235321,-0.048996314406395,0
"sub-MURIC208",11,1,"rating_alc_friend3",2,0.426151394844055,"Beer_X31.jpg","regulation","perspective-taking","beta_0035",8.1615973721038,0.99531763792038,0
"sub-MURIC208",11,2,"rating_alc_friend3",2,0.909571528434753,"shutterstock_219740071.jpg","regulation","perspective-taking","beta_0053",-11.797149755182,-0.048548839986324,0
"sub-MURIC208",11,3,"rating_alc_friend3",2,0.459821820259094,"Wine_X31.jpg","regulation","perspective-taking","beta_0051",-20.9335631692527,0.652083575725555,0
"sub-MURIC208",11,4,"rating_alc_friend3",2,1.95440304279327,"shutterstock_489452248.jpg","regulation","perspective-taking","beta_0054",-6.17087192203371,-0.416331082582474,0
"sub-MURIC208",13,1,"rating_alc_friend4",1,0.643638253211975,"Beer7.jpg","regulation","perspective-taking","beta_0068",45.2381367382952,0.006151862442493,0
"sub-MURIC208",13,2,"rating_alc_friend4",1,0.543927013874054,"Beer_X36.jpg","regulation","perspective-taking","beta_0072",11.2315360523631,0.937473118305206,0
"sub-MURIC208",13,3,"rating_alc_friend4",1,0.860373377799988,"Liquor_X40.jpg","regulation","perspective-taking","beta_0080",3.20587936989394,0.161946073174477,0
"sub-MURIC208",13,4,"rating_alc_friend4",1,1.90642738342285,"Wine5.jpg","regulation","perspective-taking","beta_0083",-4.97967495992725,-0.272805273532867,0
"sub-MURIC208",14,1,"rating_alc_react",2,0.460857570171356,"Beer6.jpg","reactivity","perspective-taking","beta_0067",-19.3406034256598,0.857522308826447,0
"sub-MURIC208",14,2,"rating_alc_react",2,0.327717691659927,"Beer29.jpg","reactivity","perspective-taking","beta_0066",-19.2378463582043,0.444713145494461,0
"sub-MURIC208",14,3,"rating_alc_react",2,1.5386301279068,"shutterstock_747693556.jpg","reactivity","perspective-taking","beta_0087",1.69833875299903,-0.104347467422485,0
"sub-MURIC208",14,4,"rating_alc_react",5,1.30604076385498,"Wine9.jpg","reactivity","perspective-taking","beta_0085",11.3449284473496,-1.70947456359863,0
"sub-MURIC208",18,1,"rating_alc_react",2,0.612668931484222,"Beer_X32.jpg","reactivity","perspective-taking","beta_0070",-5.30264919572629,-0.759396195411682,0
"sub-MURIC208",18,2,"rating_alc_react",2,0.451123893260956,"Beer20.jpg","reactivity","perspective-taking","beta_0065",-4.57139608601732,0.290552586317062,0
"sub-MURIC208",18,3,"rating_alc_react",1,0.485299080610275,"Liquor8.jpg","reactivity","perspective-taking","beta_0077",-11.2458478567257,-0.786371529102325,0
"sub-MURIC208",18,4,"rating_alc_react",1,0.618395924568176,"Liquor5.jpg","reactivity","perspective-taking","beta_0076",-9.20275713451377,0.367811679840088,0
"sub-MURIC208",21,1,"rating_alc_friend4",1,1.60829031467438,"Liquor18.jpg","regulation","perspective-taking","beta_0105",11.4430381242289,-0.623607635498047,0
"sub-MURIC208",21,2,"rating_alc_friend4",1,0.800796270370483,"Wine29.jpg","regulation","perspective-taking","beta_0112",4.36993211844528,0.832810163497925,0
"sub-MURIC208",21,3,"rating_alc_friend4",1,0.936435878276825,"Beer19.jpg","regulation","perspective-taking","beta_0096",8.69395907833514,0.656723141670227,0
"sub-MURIC208",21,4,"rating_alc_friend4",1,0.486184120178223,"Beer24.jpg","regulation","perspective-taking","beta_0097",1.1405993396658,1.06889832019806,0
"sub-MURIC208",23,1,"rating_alc_react",2,0.557798206806183,"Liquor16.jpg","reactivity","perspective-taking","beta_0104",9.92149448313783,0.31954237818718,0
"sub-MURIC208",23,2,"rating_alc_react",1,0.427519261837006,"shutterstock_518689462.jpg","reactivity","perspective-taking","beta_0117",6.22167284061769,0.820919871330261,0
"sub-MURIC208",23,3,"rating_alc_react",1,0.360495328903198,"shutterstock_227045194.jpg","reactivity","perspective-taking","beta_0115",0.990814131177447,-0.308885216712952,0
"sub-MURIC208",23,4,"rating_alc_react",2,0.745353698730469,"Beer30.jpg","reactivity","perspective-taking","beta_0098",-28.5126374907869,1.41647040843964,0
"sub-MURIC208",24,1,"rating_alc_friend4",1,0.442250102758408,"Beer_X33.jpg","regulation","perspective-taking",NA,NA,NA,NA
"sub-MURIC208",24,2,"rating_alc_friend4",1,0.392731130123138,"shutterstock_354506048.jpg","regulation","perspective-taking","beta_0116",-1.1631997481546,0.092961527407169,0
"sub-MURIC208",24,3,"rating_alc_friend4",1,0.584140598773956,"Beer16.jpg","regulation","perspective-taking","beta_0095",-7.84976522565129,0.104130610823631,0
"sub-MURIC208",24,4,"rating_alc_friend4",1,0.803610265254974,"Liquor10.jpg","regulation","perspective-taking","beta_0103",-5.60783395307665,-0.060735832899809,0
"sub-MURIC209",1,1,"rating_alc_react",2,0.624680399894714,"Beer_X32.jpg","reactivity","control","beta_0003",-11.4159068057904,-0.382500767707825,0
"sub-MURIC209",1,2,"rating_alc_react",4,0.437341332435608,"Liquor8.jpg","reactivity","control","beta_0010",-26.5904605118987,-0.214741066098213,0
"sub-MURIC209",1,3,"rating_alc_react",3,0.455135762691498,"Liquor5.jpg","reactivity","control","beta_0009",-25.8602491840706,-0.208503797650337,0
"sub-MURIC209",1,4,"rating_alc_react",1,0.632124602794647,"Beer20.jpg","reactivity","control","beta_0002",-1.9117988693565,0.048280775547028,0
"sub-MURIC209",4,1,"rating_alc_react",1,0.7461296916008,"Liquor_X36.jpg","reactivity","control","beta_0011",41.2077255482611,0.358086436986923,0
"sub-MURIC209",4,2,"rating_alc_react",2,0.391769081354141,"Wine7.jpg","reactivity","control","beta_0024",-0.282670410941968,-0.493952095508575,0
"sub-MURIC209",4,3,"rating_alc_react",2,0.49052706360817,"Beer_X34.jpg","reactivity","control","beta_0004",29.9703221380071,0.429088234901428,0
"sub-MURIC209",4,4,"rating_alc_react",1,0.571312487125397,"Liquor19.jpg","reactivity","control","beta_0007",-9.44014278015294,0.530480861663818,0
"sub-MURIC209",5,1,"rating_alc_react",1,0.673159956932068,"Liquor25.jpg","reactivity","control","beta_0008",9.84428028851232,0.119265429675579,0
"sub-MURIC209",5,2,"rating_alc_react",3,0.566760659217834,"Wine14.jpg","reactivity","control","beta_0022",-18.9702732965317,0.242070615291595,0
"sub-MURIC209",5,3,"rating_alc_react",2,0.669887125492096,"Wine_X36.jpg","reactivity","control","beta_0025",18.7785766863404,-0.325996190309525,0
"sub-MURIC209",5,4,"rating_alc_react",2,0.796521842479706,"Wine6.jpg","reactivity","control","beta_0023",11.5383438294783,-0.295155555009842,0
"sub-MURIC209",7,1,"rating_alc_react",1,0.620037853717804,"Beer6.jpg","reactivity","control",NA,NA,NA,NA
"sub-MURIC209",7,2,"rating_alc_react",1,0.557761430740356,"shutterstock_747693556.jpg","reactivity","control","beta_0056",-4.70253228670032,0.108497723937035,0
"sub-MURIC209",7,3,"rating_alc_react",3,0.617138147354126,"Wine9.jpg","reactivity","control","beta_0052",-17.3787746457708,0.236469224095345,0
"sub-MURIC209",7,4,"rating_alc_react",2,0.472911924123764,"Beer29.jpg","reactivity","control","beta_0033",24.7266613481366,0.061667121946812,0
"sub-MURIC209",10,1,"rating_alc_react",2,1.4045604467392,"Wine16.jpg","reactivity","control","beta_0051",35.5014069737904,-0.619513750076294,0
"sub-MURIC209",10,2,"rating_alc_react",3,0.488051861524582,"Liquor26.jpg","reactivity","control","beta_0044",30.8676167295786,-0.152942523360252,0
"sub-MURIC209",10,3,"rating_alc_react",2,0.473013818264008,"Wine10.jpg","reactivity","control","beta_0050",-19.0779621097445,0.2471764087677,0
"sub-MURIC209",10,4,"rating_alc_react",4,0.390071868896484,"shutterstock_531124957.jpg","reactivity","control","beta_0055",19.1675210568089,0.878354907035828,0
"sub-MURIC209",12,1,"rating_alc_react",1,0.461377084255219,"Liquor16.jpg","reactivity","control","beta_0043",-9.5659012237186,-0.203623846173286,0
"sub-MURIC209",12,2,"rating_alc_react",1,0.608367145061493,"shutterstock_227045194.jpg","reactivity","control","beta_0053",11.7278358267155,0.735151350498199,0
"sub-MURIC209",12,3,"rating_alc_react",2,0.396409928798676,"Beer30.jpg","reactivity","control","beta_0034",-20.4519996264729,0.385428994894028,0
"sub-MURIC209",12,4,"rating_alc_react",4,0.52355569601059,"shutterstock_518689462.jpg","reactivity","control","beta_0054",-19.1179810648431,0.007337925024331,0
"sub-MURIC209",13,1,"rating_alc_react",2,0.421446651220322,"Wine18.jpg","reactivity","control","beta_0084",36.9436432750123,-0.097002968192101,0
"sub-MURIC209",13,2,"rating_alc_react",1,0.656094968318939,"Beer22.jpg","reactivity","control","beta_0067",0.519663602783127,-0.428776293992996,0
"sub-MURIC209",13,3,"rating_alc_react",2,0.873291969299316,"Beer_X37.jpg","reactivity","control","beta_0069",25.4610910149626,-0.640469193458557,0
"sub-MURIC209",13,4,"rating_alc_react",5,0.490043610334396,"Wine22.jpg","reactivity","control","beta_0085",15.2432982886797,0.053936444222927,0
"sub-MURIC209",14,1,"rating_alc_react",1,0.462503671646118,"Liquor_X31.jpg","reactivity","control","beta_0074",13.5774208187388,0.223318323493004,0
"sub-MURIC209",14,2,"rating_alc_react",1,0.714775085449219,"Beer13.jpg","reactivity","control","beta_0065",-17.2087302263665,0.310656875371933,0
"sub-MURIC209",14,3,"rating_alc_react",1,0.595672369003296,"Liquor_X32.jpg","reactivity","control","beta_0075",-0.889078098908661,0.648898184299469,0
"sub-MURIC209",14,4,"rating_alc_react",1,0.383143901824951,"Beer_X35.jpg","reactivity","control","beta_0068",4.42443601542391,-0.286260157823563,0
"sub-MURIC209",15,1,"rating_alc_react",2,1.29057097434998,"Beer1.jpg","reactivity","control","beta_0064",-20.5521040174913,-0.139571353793144,0
"sub-MURIC209",15,2,"rating_alc_react",2,0.491588234901428,"shutterstock_59587495.jpg","reactivity","control","beta_0087",12.5792665563445,-0.209568828344345,0
"sub-MURIC209",15,3,"rating_alc_react",3,0.779959857463837,"Wine8.jpg","reactivity","control","beta_0086",15.2922516254777,0.097260929644108,0
"sub-MURIC209",15,4,"rating_alc_react",2,0.641710042953491,"Beer14.jpg","reactivity","control",NA,NA,NA,NA
"sub-MURIC209",19,1,"rating_alc_react",1,0.366065055131912,"shutterstock_54126199.jpg","reactivity","control","beta_0116",-5.9752534665545,0.511733174324036,0
"sub-MURIC209",19,2,"rating_alc_react",2,0.872397303581238,"Beer_X38.jpg","reactivity","control","beta_0097",25.6957853234359,0.218815833330154,0
"sub-MURIC209",19,3,"rating_alc_react",4,0.421890020370483,"Wine_X33.jpg","reactivity","control","beta_0114",-9.63094463348356,-0.297704100608826,0
"sub-MURIC209",19,4,"rating_alc_react",4,0.406170755624771,"shutterstock_194729426.jpg","reactivity","control","beta_0115",-12.1025541065791,0.169196233153343,0
"sub-MURIC209",22,1,"rating_alc_react",2,0.582736968994141,"Beer9.jpg","reactivity","control","beta_0096",28.5370193796898,0.471438467502594,0
"sub-MURIC209",22,2,"rating_alc_react",3,0.579852104187012,"Wine_X32.jpg","reactivity","control","beta_0113",30.0435525776566,-0.004608654417098,0
"sub-MURIC209",22,3,"rating_alc_react",1,0.430741190910339,"Liquor_X33.jpg","reactivity","control","beta_0101",-10.5896311325482,0.268582105636597,0
"sub-MURIC209",22,4,"rating_alc_react",1,0.437698364257812,"Beer12.jpg","reactivity","control","beta_0095",8.07804740008952,-1.18045818805695,0
"sub-MURIC209",23,1,"rating_alc_react",2,0.467717260122299,"Liquor_X37.jpg","reactivity","control","beta_0102",3.30528423060699,0.178016275167465,0
"sub-MURIC209",23,2,"rating_alc_react",1,0.458039999008179,"Liquor_X42.jpg","reactivity","control","beta_0103",7.74545588315878,0.066384851932526,0
"sub-MURIC209",23,3,"rating_alc_react",3,0.713122248649597,"shutterstock_650326123.jpg","reactivity","control","beta_0117",8.58683900537989,0.271861165761948,0
"sub-MURIC209",23,4,"rating_alc_react",5,0.391371250152588,"shutterstock_93461314.jpg","reactivity","control","beta_0118",-2.88295924611172,-0.113626107573509,0
"sub-MURIC210",1,1,"rating_alc_mindful",1,0.767065644264221,"Liquor19.jpg","regulation","mindful attention","beta_0010",-10.3160600790139,-0.835234522819519,0
"sub-MURIC210",1,2,"rating_alc_mindful",4,0.846360325813293,"Beer_X34.jpg","regulation","mindful attention","beta_0006",13.1751728882089,-2.23523497581482,0
"sub-MURIC210",1,3,"rating_alc_mindful",3,1.02000594139099,"Liquor_X36.jpg","regulation","mindful attention","beta_0013",-8.40581118605087,0.721441686153412,0
"sub-MURIC210",1,4,"rating_alc_mindful",2,0.703336715698242,"Wine7.jpg","regulation","mindful attention","beta_0020",3.38601697179196,0.891845405101776,0
"sub-MURIC210",3,1,"rating_alc_react",5,0.440597355365753,"Beer29.jpg","reactivity","mindful attention","beta_0003",0.04177058569935,0.299477607011795,0
"sub-MURIC210",3,2,"rating_alc_react",2,1.03009855747223,"Wine9.jpg","reactivity","mindful attention","beta_0021",-29.4158725276617,0.681595623493195,0
"sub-MURIC210",3,3,"rating_alc_react",4,0.530440270900726,"Beer6.jpg","reactivity","mindful attention","beta_0004",-30.5347622148709,-1.81880283355713,0
"sub-MURIC210",3,4,"rating_alc_react",2,0.713406085968018,"shutterstock_747693556.jpg","reactivity","mindful attention","beta_0025",2.1960294844676,0.370917111635208,0
"sub-MURIC210",4,1,"rating_alc_mindful",4,1.71193969249725,"shutterstock_219740071.jpg","regulation","mindful attention","beta_0023",37.2264404556689,-0.232584521174431,0
"sub-MURIC210",4,2,"rating_alc_mindful",4,0.495936244726181,"shutterstock_489452248.jpg","regulation","mindful attention","beta_0024",16.274294000133,0.35642483830452,0
"sub-MURIC210",4,3,"rating_alc_mindful",4,0.581452310085297,"Beer_X31.jpg","regulation","mindful attention","beta_0005",19.9447518195999,0.416022479534149,0
"sub-MURIC210",4,4,"rating_alc_mindful",1,0.613496422767639,"Wine_X31.jpg","regulation","mindful attention","beta_0022",7.63536475148164,-0.627926528453827,0
"sub-MURIC210",6,1,"rating_alc_react",3,0.542965769767761,"Beer_X35.jpg","reactivity","mindful attention","beta_0007",-0.798132534932979,-0.006007198709995,0
"sub-MURIC210",6,2,"rating_alc_react",1,0.596199750900269,"Liquor_X32.jpg","reactivity","mindful attention","beta_0012",-39.545616324278,0.379942178726196,0
"sub-MURIC210",6,3,"rating_alc_react",1,0.656907558441162,"Liquor_X31.jpg","reactivity","mindful attention","beta_0011",9.14639638907199,-1.49349808692932,0
"sub-MURIC210",6,4,"rating_alc_react",3,0.924806296825409,"Beer13.jpg","reactivity","mindful attention","beta_0002",32.9691995284249,-2.41789364814758,0
"sub-MURIC210",7,1,"rating_alc_mindful",3,0.645795881748199,"Liquor_X39.jpg","regulation","mindful attention","beta_0040",-11.6338627468131,0.67829954624176,0
"sub-MURIC210",7,2,"rating_alc_mindful",3,0.658285319805145,"Beer27.jpg","regulation","mindful attention","beta_0034",-18.6409277389089,-0.303445905447006,0
"sub-MURIC210",7,3,"rating_alc_mindful",1,0.674583196640015,"Wine19.jpg","regulation","mindful attention","beta_0049",10.7562914644041,0.118326053023338,0
"sub-MURIC210",7,4,"rating_alc_mindful",1,0.60485577583313,"shutterstock_629011190.jpg","regulation","mindful attention","beta_0056",-18.9082971080696,-0.458676636219025,0
"sub-MURIC210",8,1,"rating_alc_react",3,0.439685732126236,"shutterstock_194729426.jpg","reactivity","mindful attention","beta_0053",-8.83093829869484,0.299776196479797,0
"sub-MURIC210",8,2,"rating_alc_react",2,0.644631683826447,"Wine_X33.jpg","reactivity","mindful attention","beta_0051",-6.3300991987915,-0.345186293125153,0
"sub-MURIC210",8,3,"rating_alc_react",2,0.573845028877258,"shutterstock_54126199.jpg","reactivity","mindful attention","beta_0055",-15.7805486390839,-1.07290256023407,0
"sub-MURIC210",8,4,"rating_alc_react",1,0.679009675979614,"Beer_X38.jpg","reactivity","mindful attention","beta_0036",-19.1696340888772,0.720300853252411,0
"sub-MURIC210",11,1,"rating_alc_react",2,0.887032508850098,"Beer20.jpg","reactivity","mindful attention","beta_0033",-9.65636955301873,-0.725886404514313,0
"sub-MURIC210",11,2,"rating_alc_react",3,0.538922727108002,"Liquor5.jpg","reactivity","mindful attention","beta_0037",-1.43677257442068,-0.2549147605896,0
"sub-MURIC210",11,3,"rating_alc_react",4,0.757225036621094,"Beer_X32.jpg","reactivity","mindful attention","beta_0035",-19.2621041142404,-0.246047869324684,0
"sub-MURIC210",11,4,"rating_alc_react",4,0.674478888511658,"Liquor8.jpg","reactivity","mindful attention","beta_0038",-3.71758888002694,-0.036687850952148,0
"sub-MURIC210",12,1,"rating_alc_mindful",2,0.465471863746643,"Wine24.jpg","regulation","mindful attention","beta_0050",-1.59874621274612,-0.09551977366209,0
"sub-MURIC210",12,2,"rating_alc_mindful",3,0.846930742263794,"Liquor_X30.jpg","regulation","mindful attention","beta_0039",-6.97614559377738,-1.44386351108551,0
"sub-MURIC210",12,3,"rating_alc_mindful",2,0.579936325550079,"shutterstock_506086420.jpg","regulation","mindful attention","beta_0054",11.990738235834,-0.963651478290558,0
"sub-MURIC210",12,4,"rating_alc_mindful",3,0.463286191225052,"shutterstock_186172556.jpg","regulation","mindful attention","beta_0052",-11.1478567837519,-1.68417358398438,0
"sub-MURIC210",15,1,"rating_alc_react",1,0.658094763755798,"shutterstock_518689462.jpg","reactivity","mindful attention","beta_0087",-24.0404967820542,-0.121213145554066,0
"sub-MURIC210",15,2,"rating_alc_react",3,0.463850557804108,"Beer30.jpg","reactivity","mindful attention","beta_0066",-19.2572788451896,1.24150907993317,0
"sub-MURIC210",15,3,"rating_alc_react",1,0.413173198699951,"Liquor16.jpg","reactivity","mindful attention","beta_0074",-6.62116500147579,0.34670427441597,0
"sub-MURIC210",15,4,"rating_alc_react",1,0.658395707607269,"shutterstock_227045194.jpg","reactivity","mindful attention","beta_0086",18.3321345127196,0.120478466153145,0
"sub-MURIC210",16,1,"rating_alc_react",1,0.457527220249176,"Wine6.jpg","reactivity","mindful attention","beta_0084",-4.42827320878081,-0.673411011695862,0
"sub-MURIC210",16,2,"rating_alc_react",1,0.636358082294464,"Wine_X36.jpg","reactivity","mindful attention","beta_0085",3.64780831964724,-1.24938404560089,0
"sub-MURIC210",16,3,"rating_alc_react",1,0.404482036828995,"Liquor25.jpg","reactivity","mindful attention","beta_0076",-21.7400840024775,-0.15709325671196,0
"sub-MURIC210",16,4,"rating_alc_react",1,0.423367708921432,"Wine14.jpg","reactivity","mindful attention","beta_0081",-31.3456819476161,1.44428420066833,0
"sub-MURIC210",17,1,"rating_alc_mindful",1,0.474572628736496,"Wine29.jpg","regulation","mindful attention","beta_0082",8.43635770658858,-1.46491193771362,0
"sub-MURIC210",17,2,"rating_alc_mindful",2,1.00526905059814,"Beer24.jpg","regulation","mindful attention","beta_0065",26.9428838564773,-0.505461513996124,0
"sub-MURIC210",17,3,"rating_alc_mindful",2,0.492033064365387,"Liquor18.jpg","regulation","mindful attention","beta_0075",51.1630055846071,0.364922434091568,0
"sub-MURIC210",17,4,"rating_alc_mindful",4,0.639518022537231,"Beer19.jpg","regulation","mindful attention","beta_0064",8.30396262176569,0.776033401489258,0
"sub-MURIC210",18,1,"rating_alc_mindful",1,0.413102507591248,"Beer_X36.jpg","regulation","mindful attention","beta_0068",-23.4873197772325,-0.032286919653416,0
"sub-MURIC210",18,2,"rating_alc_mindful",1,0.440499603748322,"Wine5.jpg","regulation","mindful attention","beta_0083",-39.1857958730764,0.043231848627329,0
"sub-MURIC210",18,3,"rating_alc_mindful",3,0.425078898668289,"Beer7.jpg","regulation","mindful attention","beta_0067",-13.8539104153152,-0.802409827709198,0
"sub-MURIC210",18,4,"rating_alc_mindful",4,0.629763245582581,"Liquor_X40.jpg","regulation","mindful attention","beta_0077",3.35163896607594,-0.101717956364155,0
"sub-MURIC210",20,1,"rating_alc_mindful",3,0.423212945461273,"shutterstock_354506048.jpg","regulation","mindful attention","beta_0117",17.9317831663161,0.45845565199852,0
"sub-MURIC210",20,2,"rating_alc_mindful",4,0.554289698600769,"Liquor10.jpg","regulation","mindful attention","beta_0104",-17.4073497080862,-0.121988296508789,0
"sub-MURIC210",20,3,"rating_alc_mindful",4,1.64206254482269,"Beer_X33.jpg","regulation","mindful attention","beta_0099",-8.47715492036537,-0.165687829256058,0
"sub-MURIC210",20,4,"rating_alc_mindful",3,1.24630665779114,"Beer16.jpg","regulation","mindful attention","beta_0096",-8.79378679674306,0.712423205375671,0
"sub-MURIC210",21,1,"rating_alc_react",3,0.677284240722656,"Beer12.jpg","reactivity","mindful attention","beta_0095",-23.2165322397315,-0.558444082736969,0
"sub-MURIC210",21,2,"rating_alc_react",1,0.446488529443741,"Liquor_X33.jpg","reactivity","mindful attention","beta_0106",6.42079090144154,-1.99945104122162,0
"sub-MURIC210",21,3,"rating_alc_react",4,0.376157641410828,"Beer9.jpg","reactivity","mindful attention","beta_0098",-15.9492789460497,0.617525160312653,0
"sub-MURIC210",21,4,"rating_alc_react",2,0.629190325737,"Wine_X32.jpg","reactivity","mindful attention","beta_0116",14.2424730692038,0.77476578950882,0
"sub-MURIC210",23,1,"rating_alc_mindful",2,0.723890900611877,"Wine22.jpg","regulation","mindful attention","beta_0115",3.37579350395775,0.531800866127014,0
"sub-MURIC210",23,2,"rating_alc_mindful",4,0.462727427482605,"Beer_X37.jpg","regulation","mindful attention","beta_0100",9.21425102912811,-1.01510798931122,0
"sub-MURIC210",23,3,"rating_alc_mindful",2,1.01463055610657,"Wine18.jpg","regulation","mindful attention","beta_0114",19.9856972790698,-2.81915211677551,0
"sub-MURIC210",23,4,"rating_alc_mindful",4,0.595760941505432,"Beer22.jpg","regulation","mindful attention","beta_0097",26.4957409747978,-1.14776158332825,0
"sub-MURIC210",24,1,"rating_alc_react",3,0.529816746711731,"shutterstock_531124957.jpg","reactivity","mindful attention","beta_0118",-27.433144322869,-0.502005457878113,0
"sub-MURIC210",24,2,"rating_alc_react",1,0.463424026966095,"Wine10.jpg","reactivity","mindful attention","beta_0112",-3.98511857373774,-1.78376877307892,0
"sub-MURIC210",24,3,"rating_alc_react",1,0.413382917642593,"Wine16.jpg","reactivity","mindful attention","beta_0113",-17.5165784172007,0.934947192668915,0
"sub-MURIC210",24,4,"rating_alc_react",2,0.427253931760788,"Liquor26.jpg","reactivity","mindful attention","beta_0105",0.047425598657189,-0.470897525548935,0
"sub-MURIC212",1,1,"rating_alc_mindful",3,1.18455827236176,"Wine18.jpg","regulation","mindful attention","beta_0017",0.173578091219882,-0.116083614528179,0
"sub-MURIC212",1,2,"rating_alc_mindful",4,1.32467031478882,"Beer22.jpg","regulation","mindful attention","beta_0004",5.00799796131003,-0.509359002113342,0
"sub-MURIC212",1,3,"rating_alc_mindful",2,0.723790228366852,"Beer_X37.jpg","regulation","mindful attention","beta_0008",-2.81870090286082,-0.048906076699495,0
"sub-MURIC212",1,4,"rating_alc_mindful",3,0.446463584899902,"Wine22.jpg","regulation","mindful attention","beta_0018",3.60860245497079,0.384112745523453,0
"sub-MURIC212",2,1,"rating_alc_mindful",3,1.36309325695038,"Beer_X31.jpg","regulation","mindful attention",NA,NA,NA,NA
"sub-MURIC212",2,2,"rating_alc_mindful",3,0.396815747022629,"Wine_X31.jpg","regulation","mindful attention","beta_0021",32.2354317240914,-0.163314893841743,0
"sub-MURIC212",2,3,"rating_alc_mindful",5,0.643721759319305,"shutterstock_489452248.jpg","regulation","mindful attention","beta_0023",26.4023929241484,0.120784148573875,0
"sub-MURIC212",2,4,"rating_alc_mindful",4,0.379827469587326,"shutterstock_219740071.jpg","regulation","mindful attention","beta_0022",22.2183855869845,0.428450047969818,0
"sub-MURIC212",3,1,"rating_alc_react",2,0.428750038146973,"Beer6.jpg","reactivity","mindful attention","beta_0006",12.9909354476238,-0.171545132994652,0
"sub-MURIC212",3,2,"rating_alc_react",4,0.396714180707932,"shutterstock_747693556.jpg","reactivity","mindful attention","beta_0025",-23.7331847748802,-0.631054639816284,0
"sub-MURIC212",3,3,"rating_alc_react",1,0.662382006645203,"Wine9.jpg","reactivity","mindful attention","beta_0020",12.9695070529387,0.138631477952003,0
"sub-MURIC212",3,4,"rating_alc_react",2,0.52361387014389,"Beer29.jpg","reactivity","mindful attention","beta_0005",-39.663998184748,0.153206720948219,0
"sub-MURIC212",6,1,"rating_alc_react",2,1.47966051101685,"Beer1.jpg","reactivity","mindful attention","beta_0002",-17.2841662083032,-0.137472435832024,0
"sub-MURIC212",6,2,"rating_alc_react",4,0.496875494718552,"shutterstock_59587495.jpg","reactivity","mindful attention","beta_0024",4.70436364311888,1.08876073360443,0
"sub-MURIC212",6,3,"rating_alc_react",2,0.429526001214981,"Wine8.jpg","reactivity","mindful attention","beta_0019",-0.930326931494924,1.03418838977814,0
"sub-MURIC212",6,4,"rating_alc_react",4,0.674097657203674,"Beer14.jpg","reactivity","mindful attention","beta_0003",-25.454185258341,0.054705049842596,0
"sub-MURIC212",7,1,"rating_alc_react",4,1.05593454837799,"shutterstock_54126199.jpg","reactivity","mindful attention","beta_0055",-21.6448512623308,-0.211809247732162,0
"sub-MURIC212",7,2,"rating_alc_react",5,0.923949599266052,"Beer_X38.jpg","reactivity","mindful attention","beta_0036",-28.2767041550115,-0.881734073162079,0
"sub-MURIC212",7,3,"rating_alc_react",3,1.29567456245422,"Wine_X33.jpg","reactivity","mindful attention","beta_0051",-24.8755753141637,0.00725154299289,0
"sub-MURIC212",7,4,"rating_alc_react",5,0.497166752815247,"shutterstock_194729426.jpg","reactivity","mindful attention","beta_0053",-5.84701904851969,0.215212687849998,0
"sub-MURIC212",9,1,"rating_alc_mindful",4,1.21332061290741,"shutterstock_506086420.jpg","regulation","mindful attention","beta_0054",-15.6131347919941,-0.348928481340408,0
"sub-MURIC212",9,2,"rating_alc_mindful",3,1.26241195201874,"shutterstock_186172556.jpg","regulation","mindful attention","beta_0052",11.922399206425,-0.319748818874359,0
"sub-MURIC212",9,3,"rating_alc_mindful",4,0.581875860691071,"Liquor_X30.jpg","regulation","mindful attention","beta_0042",28.4832447405654,0.205442443490028,0
"sub-MURIC212",9,4,"rating_alc_mindful",2,0.487909853458405,"Wine24.jpg","regulation","mindful attention","beta_0049",3.8276783513034,-0.024124588817358,0
"sub-MURIC212",11,1,"rating_alc_mindful",3,0.501385986804962,"Wine19.jpg","regulation","mindful attention","beta_0048",12.0181961330208,-0.564817070960999,0
"sub-MURIC212",11,2,"rating_alc_mindful",2,0.391707479953766,"shutterstock_629011190.jpg","regulation","mindful attention","beta_0056",14.6423531693789,0.112008698284626,0
"sub-MURIC212",11,3,"rating_alc_mindful",4,0.443508744239807,"Beer27.jpg","regulation","mindful attention","beta_0034",10.3930880578377,-0.202088266611099,0
"sub-MURIC212",11,4,"rating_alc_mindful",4,0.525128960609436,"Liquor_X39.jpg","regulation","mindful attention","beta_0044",16.54949643694,0.675588428974152,0
"sub-MURIC212",12,1,"rating_alc_react",2,0.529462516307831,"Beer9.jpg","reactivity","mindful attention","beta_0035",27.9789108133535,0.455303877592087,0
"sub-MURIC212",12,2,"rating_alc_react",1,0.673719048500061,"Wine_X32.jpg","reactivity","mindful attention","beta_0050",1.08822497211657,-1.73289310932159,0
"sub-MURIC212",12,3,"rating_alc_react",1,0.660336971282959,"Liquor_X33.jpg","reactivity","mindful attention","beta_0043",-5.48152088266189,-0.894807994365692,0
"sub-MURIC212",12,4,"rating_alc_react",4,0.496236890554428,"Beer12.jpg","reactivity","mindful attention","beta_0033",1.18764834322669,0.169249996542931,0
"sub-MURIC212",14,1,"rating_alc_mindful",5,0.762560069561005,"Liquor_X36.jpg","regulation","mindful attention","beta_0072",25.6023733975503,0.152840450406075,0
"sub-MURIC212",14,2,"rating_alc_mindful",2,0.529501795768738,"Wine7.jpg","regulation","mindful attention","beta_0084",20.1536610809105,-0.262369930744171,0
"sub-MURIC212",14,3,"rating_alc_mindful",3,0.524989306926727,"Beer_X34.jpg","regulation","mindful attention","beta_0065",15.9048438679938,0.196274325251579,0
"sub-MURIC212",14,4,"rating_alc_mindful",3,0.669872462749481,"Liquor19.jpg","regulation","mindful attention","beta_0070",45.2008238866667,0.523070096969604,0
"sub-MURIC212",15,1,"rating_alc_mindful",1,0.762889385223389,"Beer7.jpg","regulation","mindful attention","beta_0064",-0.504995876720775,0.709893465042114,0
"sub-MURIC212",15,2,"rating_alc_mindful",4,0.457612007856369,"Liquor_X40.jpg","regulation","mindful attention","beta_0074",-9.83666012519998,1.80283296108246,0
"sub-MURIC212",15,3,"rating_alc_mindful",2,0.574248909950256,"Wine5.jpg","regulation","mindful attention","beta_0083",-4.47904832822384,1.44613206386566,0
"sub-MURIC212",15,4,"rating_alc_mindful",4,0.529358685016632,"Beer_X36.jpg","regulation","mindful attention","beta_0066",-28.0105199596507,0.176332473754883,0
"sub-MURIC212",16,1,"rating_alc_react",3,1.06351220607758,"Wine16.jpg","reactivity","mindful attention","beta_0082",-38.0011985543994,-0.791079342365265,0
"sub-MURIC212",16,2,"rating_alc_react",5,0.437713623046875,"Liquor26.jpg","reactivity","mindful attention","beta_0071",-13.0120754753962,0.685415089130402,0
"sub-MURIC212",16,3,"rating_alc_react",4,0.424772381782532,"Wine10.jpg","reactivity","mindful attention","beta_0081",-9.02667572763703,1.61548733711243,0
"sub-MURIC212",16,4,"rating_alc_react",5,0.318589597940445,"shutterstock_531124957.jpg","reactivity","mindful attention","beta_0085",3.51211683508776,-0.56861823797226,0
"sub-MURIC212",17,1,"rating_alc_react",4,0.425924122333527,"Liquor_X37.jpg","reactivity","mindful attention","beta_0073",-35.7829848648983,-0.154264464974403,0
"sub-MURIC212",17,2,"rating_alc_react",4,0.595278203487396,"Liquor_X42.jpg","reactivity","mindful attention","beta_0075",11.1661791819927,0.52555251121521,0
"sub-MURIC212",17,3,"rating_alc_react",5,0.525218904018402,"shutterstock_650326123.jpg","reactivity","mindful attention","beta_0086",-13.1297957405276,0.955893576145172,0
"sub-MURIC212",17,4,"rating_alc_react",4,0.445889204740524,"shutterstock_93461314.jpg","reactivity","mindful attention","beta_0087",4.51483247502355,1.49459934234619,0
"sub-MURIC212",19,1,"rating_alc_react",2,0.701943874359131,"Beer_X32.jpg","reactivity","mindful attention","beta_0099",-41.6170468685052,-0.4872205555439,0
"sub-MURIC212",19,2,"rating_alc_react",3,0.526548743247986,"Liquor8.jpg","reactivity","mindful attention","beta_0106",-11.3589634827348,-1.31053471565247,0
"sub-MURIC212",19,3,"rating_alc_react",3,0.463417381048203,"Liquor5.jpg","reactivity","mindful attention","beta_0105",19.8227593468196,-0.57239705324173,0
"sub-MURIC212",19,4,"rating_alc_react",4,0.379619568586349,"Beer20.jpg","reactivity","mindful attention","beta_0097",39.1126722658456,1.01234698295593,0
"sub-MURIC212",20,1,"rating_alc_mindful",2,0.714252352714539,"Beer_X33.jpg","regulation","mindful attention","beta_0100",9.12661003659831,0.71696525812149,0
"sub-MURIC212",20,2,"rating_alc_mindful",4,0.67564457654953,"Beer16.jpg","regulation","mindful attention","beta_0095",-25.5424426200013,0.007606241852045,0
"sub-MURIC212",20,3,"rating_alc_mindful",5,0.763197302818298,"Liquor10.jpg","regulation","mindful attention","beta_0102",9.98335896910133,0.728676676750183,0
"sub-MURIC212",20,4,"rating_alc_mindful",3,0.614661574363708,"shutterstock_354506048.jpg","regulation","mindful attention","beta_0118",37.4845572986207,1.55859041213989,0
"sub-MURIC212",22,1,"rating_alc_mindful",4,0.406609386205673,"Liquor18.jpg","regulation","mindful attention","beta_0103",-0.444974836549636,1.67135274410248,0
"sub-MURIC212",22,2,"rating_alc_mindful",3,0.436784207820892,"Beer19.jpg","regulation","mindful attention","beta_0096",11.6531229732173,0.210246503353119,0
"sub-MURIC212",22,3,"rating_alc_mindful",5,0.729911148548126,"Beer24.jpg","regulation","mindful attention","beta_0098",-3.02560664918932,-0.212418988347054,0
"sub-MURIC212",22,4,"rating_alc_mindful",5,0.424212098121643,"Wine29.jpg","regulation","mindful attention","beta_0115",-28.4958560957171,-0.345246732234955,0
"sub-MURIC212",23,1,"rating_alc_react",4,0.546759963035583,"Liquor25.jpg","reactivity","mindful attention","beta_0104",-19.0576718383967,0.491769969463348,0
"sub-MURIC212",23,2,"rating_alc_react",4,0.646932721138,"Wine14.jpg","reactivity","mindful attention","beta_0114",16.9247249643416,-0.512751460075378,0
"sub-MURIC212",23,3,"rating_alc_react",4,0.525189697742462,"Wine_X36.jpg","reactivity","mindful attention","beta_0117",12.4896606491958,0.682693541049957,0
"sub-MURIC212",23,4,"rating_alc_react",2,0.687843203544617,"Wine6.jpg","reactivity","mindful attention","beta_0116",-20.2063199153741,-1.26445186138153,0
"sub-MURIC213",1,1,"rating_alc_react",2,0.798885226249695,"Wine_X31.jpg","reactivity","perspective-taking","beta_0019",-1.94237303840479,-0.303555369377136,0
"sub-MURIC213",1,2,"rating_alc_react",1,1.09433555603027,"shutterstock_219740071.jpg","reactivity","perspective-taking","beta_0022",8.62333467748945,-0.606852531433105,0
"sub-MURIC213",1,3,"rating_alc_react",2,0.871150493621826,"Beer_X31.jpg","reactivity","perspective-taking","beta_0006",8.35091334142609,-0.795037746429443,0
"sub-MURIC213",1,4,"rating_alc_react",3,1.10049998760223,"shutterstock_489452248.jpg","reactivity","perspective-taking","beta_0023",2.25798677464906,-0.054697159677744,0
"sub-MURIC213",2,1,"rating_alc_react",4,0.837855219841003,"Liquor_X40.jpg","reactivity","perspective-taking","beta_0014",-0.991317804413755,0.081812046468258,0
"sub-MURIC213",2,2,"rating_alc_react",1,0.788783133029938,"Beer_X36.jpg","reactivity","perspective-taking","beta_0008",2.86116648229996,0.104713469743729,0
"sub-MURIC213",2,3,"rating_alc_react",1,0.732410073280334,"Beer7.jpg","reactivity","perspective-taking","beta_0005",17.6725593356745,-0.898684620857239,0
"sub-MURIC213",2,4,"rating_alc_react",2,0.72402036190033,"Wine5.jpg","reactivity","perspective-taking","beta_0017",13.3657301213473,-0.397051781415939,0
"sub-MURIC213",5,1,"rating_alc_friend3",1,0.805568277835846,"Beer_X38.jpg","regulation","perspective-taking","beta_0009",-12.6800222007952,-0.007199349347502,0
"sub-MURIC213",5,2,"rating_alc_friend3",1,0.847630321979523,"shutterstock_194729426.jpg","regulation","perspective-taking","beta_0021",3.56893350625879,-0.799033522605896,0
"sub-MURIC213",5,3,"rating_alc_friend3",1,0.919146955013275,"shutterstock_54126199.jpg","regulation","perspective-taking","beta_0024",2.07333382767845,-0.440596699714661,0
"sub-MURIC213",5,4,"rating_alc_friend3",1,0.920917630195618,"Wine_X33.jpg","regulation","perspective-taking","beta_0020",-12.3850886463338,0.660053253173828,0
"sub-MURIC213",10,1,"rating_alc_friend3",1,1.22772693634033,"Liquor_X42.jpg","regulation","perspective-taking","beta_0041",9.35433225842151,-1.01468467712402,0
"sub-MURIC213",10,2,"rating_alc_friend3",1,1.40922021865845,"shutterstock_93461314.jpg","regulation","perspective-taking","beta_0056",26.0123842599581,-0.915105164051056,0
"sub-MURIC213",10,3,"rating_alc_friend3",2,0.743323922157288,"Liquor_X37.jpg","regulation","perspective-taking","beta_0040",-15.6652836016375,-0.299335479736328,0
"sub-MURIC213",10,4,"rating_alc_friend3",1,0.73029237985611,"shutterstock_650326123.jpg","regulation","perspective-taking","beta_0055",-3.26807417666753,-0.261744648218155,0
"sub-MURIC213",11,1,"rating_alc_friend3",1,0.875597536563873,"shutterstock_59587495.jpg","regulation","perspective-taking","beta_0054",5.68088310482272,-0.437749713659286,0
"sub-MURIC213",11,2,"rating_alc_friend3",1,0.835309088230133,"Beer14.jpg","regulation","perspective-taking","beta_0034",2.08034109886758,0.012062010355294,0
"sub-MURIC213",11,3,"rating_alc_friend3",1,0.860740542411804,"Beer1.jpg","regulation","perspective-taking","beta_0033",0.527319023925516,-0.256990283727646,0
"sub-MURIC213",11,4,"rating_alc_friend3",1,1.20102477073669,"Wine8.jpg","regulation","perspective-taking","beta_0051",1.85280427126738,-0.829163730144501,0
"sub-MURIC213",12,1,"rating_alc_react",1,0.839467763900757,"Beer16.jpg","reactivity","perspective-taking","beta_0035",-5.58873728719367,-0.280550122261047,0
"sub-MURIC213",12,2,"rating_alc_react",1,1.81186139583588,"shutterstock_354506048.jpg","reactivity","perspective-taking","beta_0053",2.41553272105696,-1.16973924636841,0
"sub-MURIC213",12,3,"rating_alc_react",1,1.86228060722351,"Beer_X33.jpg","reactivity","perspective-taking","beta_0036",6.73988201528093,-0.343077957630157,0
"sub-MURIC213",12,4,"rating_alc_react",4,0.676059365272522,"Liquor10.jpg","reactivity","perspective-taking","beta_0038",-0.302843843878639,-0.098302468657494,0
"sub-MURIC213",13,1,"rating_alc_friend4",2,0.870106399059296,"Wine7.jpg","regulation","perspective-taking","beta_0085",-15.4658338704701,-0.497415065765381,0
"sub-MURIC213",13,2,"rating_alc_friend4",2,0.935661494731903,"Liquor19.jpg","regulation","perspective-taking","beta_0072",-6.48963279253724,-0.071207001805305,0
"sub-MURIC213",13,3,"rating_alc_friend4",3,0.70176112651825,"Liquor_X36.jpg","regulation","perspective-taking","beta_0076",-23.8195952423158,0.190999269485474,0
"sub-MURIC213",13,4,"rating_alc_friend4",3,0.769554197788239,"Beer_X34.jpg","regulation","perspective-taking","beta_0066",6.07762824808706,0.016703417524695,0
"sub-MURIC213",14,1,"rating_alc_react",4,1.09972453117371,"shutterstock_629011190.jpg","reactivity","perspective-taking","beta_0087",-1.05917094020892,-0.378814816474915,0
"sub-MURIC213",14,2,"rating_alc_react",4,0.80186802148819,"Liquor_X39.jpg","reactivity","perspective-taking","beta_0077",10.4414957149893,-0.760475277900696,0
"sub-MURIC213",14,3,"rating_alc_react",2,1.76007890701294,"Wine19.jpg","reactivity","perspective-taking","beta_0084",18.863041686934,0.215213388204575,0
"sub-MURIC213",14,4,"rating_alc_react",1,0.511303305625916,"Beer27.jpg","reactivity","perspective-taking","beta_0065",2.53684860238049,0.333789080381393,0
"sub-MURIC213",20,1,"rating_alc_react",1,1.22101032733917,"shutterstock_186172556.jpg","reactivity","perspective-taking","beta_0115",-7.56212114506011,0.138762131333351,0
"sub-MURIC213",20,2,"rating_alc_react",2,0.678065538406372,"Wine24.jpg","reactivity","perspective-taking","beta_0112",-5.82312533060323,-0.015227681957185,0
"sub-MURIC213",20,3,"rating_alc_react",2,0.960680425167084,"shutterstock_506086420.jpg","reactivity","perspective-taking","beta_0117",14.0080986656493,-0.296061009168625,0
"sub-MURIC213",20,4,"rating_alc_react",4,0.645614981651306,"Liquor_X30.jpg","reactivity","perspective-taking","beta_0105",13.7536315635511,-0.306130230426788,0
"sub-MURIC213",21,1,"rating_alc_friend4",2,0.638961911201477,"Beer22.jpg","regulation","perspective-taking","beta_0097",17.9083594487259,0.552148997783661,0
"sub-MURIC213",21,2,"rating_alc_friend4",2,0.670147120952606,"Wine22.jpg","regulation","perspective-taking","beta_0111",4.29479292383902,0.437733352184296,0
"sub-MURIC213",21,3,"rating_alc_friend4",2,0.69314843416214,"Wine18.jpg","regulation","perspective-taking","beta_0110",-4.85142237625119,0.736774325370789,0
"sub-MURIC213",21,4,"rating_alc_friend4",3,0.760132849216461,"Beer_X37.jpg","regulation","perspective-taking","beta_0101",1.5627093448869,-0.199445515871048,0
"sub-MURIC213",23,1,"rating_alc_friend4",3,0.368686676025391,"Wine_X32.jpg","regulation","perspective-taking","beta_0114",-2.33578596403548,0.299058258533478,0
"sub-MURIC213",23,2,"rating_alc_friend4",2,0.640504956245422,"Beer12.jpg","regulation","perspective-taking","beta_0095",-7.19183685949692,-0.238494679331779,0
"sub-MURIC213",23,3,"rating_alc_friend4",NA,NA,"Beer9.jpg","regulation","perspective-taking","beta_0100",-7.24618601197304,-0.463223874568939,0
"sub-MURIC213",23,4,"rating_alc_friend4",3,0.476022183895111,"Liquor_X33.jpg","regulation","perspective-taking","beta_0106",-18.7578072134208,-0.151380315423012,0
"sub-MURIC213",24,1,"rating_alc_react",1,0.827986240386963,"Beer19.jpg","reactivity","perspective-taking","beta_0096",2.42206787318491,0.494342118501663,0
"sub-MURIC213",24,2,"rating_alc_react",2,1.12628841400146,"Wine29.jpg","reactivity","perspective-taking","beta_0113",-2.11367577182455,-0.165613278746605,0
"sub-MURIC213",24,3,"rating_alc_react",4,0.543726444244385,"Liquor18.jpg","reactivity","perspective-taking","beta_0104",-13.1456373579704,0.776962399482727,0
"sub-MURIC213",24,4,"rating_alc_react",2,0.527701854705811,"Beer24.jpg","reactivity","perspective-taking","beta_0098",11.5396870117054,0.791604161262512,0
"sub-MURIC219",1,1,"rating_alc_friend3",1,1.01350629329681,"Liquor19.jpg","regulation","perspective-taking","beta_0010",-0.769132666768035,-0.312071472406387,0
"sub-MURIC219",1,2,"rating_alc_friend3",1,1.38674831390381,"Beer_X34.jpg","regulation","perspective-taking","beta_0006",8.70041503421118,-0.123160019516945,0
"sub-MURIC219",1,3,"rating_alc_friend3",1,0.64350289106369,"Wine7.jpg","regulation","perspective-taking","beta_0020",21.8971414260953,-0.600882291793823,0
"sub-MURIC219",1,4,"rating_alc_friend3",1,0.694366276264191,"Liquor_X36.jpg","regulation","perspective-taking","beta_0011",18.1552396388721,-0.203811585903168,0
"sub-MURIC219",2,1,"rating_alc_react",2,1.34189581871033,"Wine29.jpg","reactivity","perspective-taking","beta_0019",-1.60944410521165,0.265750199556351,0
"sub-MURIC219",2,2,"rating_alc_react",2,1.3115394115448,"Beer24.jpg","reactivity","perspective-taking","beta_0003",5.85701904401908,0.446874499320984,0
"sub-MURIC219",2,3,"rating_alc_react",2,0.606058835983276,"Beer19.jpg","reactivity","perspective-taking","beta_0002",-1.05095827520085,0.107797659933567,0
"sub-MURIC219",2,4,"rating_alc_react",2,0.789266586303711,"Liquor18.jpg","reactivity","perspective-taking","beta_0009",-8.52913106554414,0.861660301685333,0
"sub-MURIC219",3,1,"rating_alc_react",2,0.771250188350677,"Liquor_X39.jpg","reactivity","perspective-taking","beta_0013",-2.59536361885582,-0.647711575031281,0
"sub-MURIC219",3,2,"rating_alc_react",2,0.620907485485077,"Beer27.jpg","reactivity","perspective-taking","beta_0004",4.24933933387538,-0.038383115082979,0
"sub-MURIC219",3,3,"rating_alc_react",NA,NA,"shutterstock_629011190.jpg","reactivity","perspective-taking","beta_0023",0.233950304330142,-0.06751362234354,0
"sub-MURIC219",3,4,"rating_alc_react",NA,NA,"Wine19.jpg","reactivity","perspective-taking","beta_0018",-6.72618431939812,0.231284722685814,0
"sub-MURIC219",5,1,"rating_alc_friend3",1,2.40489149093628,"shutterstock_93461314.jpg","regulation","perspective-taking","beta_0025",10.3782321259146,-0.084481850266457,0
"sub-MURIC219",5,2,"rating_alc_friend3",1,0.793178915977478,"shutterstock_650326123.jpg","regulation","perspective-taking","beta_0024",3.1490308171047,0.602429986000061,0
"sub-MURIC219",5,3,"rating_alc_friend3",1,0.455073326826096,"Liquor_X42.jpg","regulation","perspective-taking","beta_0014",-2.55596549049883,0.0733373016119,0
"sub-MURIC219",5,4,"rating_alc_friend3",1,2.07847380638123,"Liquor_X37.jpg","regulation","perspective-taking","beta_0012",-0.343600621524478,0.162967070937157,0
"sub-MURIC219",8,1,"rating_alc_friend3",1,0.443715125322342,"Beer14.jpg","regulation","perspective-taking","beta_0035",-7.35698640362851,-0.003771521383896,0
"sub-MURIC219",8,2,"rating_alc_friend3",1,0.321671575307846,"Wine8.jpg","regulation","perspective-taking","beta_0052",-11.8942987816216,-0.083747953176498,0
"sub-MURIC219",8,3,"rating_alc_friend3",1,0.460049659013748,"shutterstock_59587495.jpg","regulation","perspective-taking","beta_0056",3.40408027989568,0.216384768486023,0
"sub-MURIC219",8,4,"rating_alc_friend3",1,1.57189857959747,"Beer1.jpg","regulation","perspective-taking","beta_0033",8.28221401158072,0.391779780387878,0
"sub-MURIC219",9,1,"rating_alc_react",1,1.55237543582916,"Wine24.jpg","reactivity","perspective-taking","beta_0050",9.40971448609202,-1.0388343334198,0
"sub-MURIC219",9,2,"rating_alc_react",3,0.997435390949249,"Liquor_X30.jpg","reactivity","perspective-taking","beta_0041",14.4234648151305,-0.303042709827423,0
"sub-MURIC219",9,3,"rating_alc_react",1,0.898803055286407,"shutterstock_186172556.jpg","reactivity","perspective-taking","beta_0054",23.3247401365292,0.11758903414011,0
"sub-MURIC219",9,4,"rating_alc_react",1,2.556715965271,"shutterstock_506086420.jpg","reactivity","perspective-taking","beta_0055",6.46778886505881,0.496240675449371,0
"sub-MURIC219",13,1,"rating_alc_friend4",2,0.593305706977844,"Beer12.jpg","regulation","perspective-taking","beta_0064",-5.77487195834286,0.459347546100616,0
"sub-MURIC219",13,2,"rating_alc_friend4",1,0.511328518390656,"Liquor_X33.jpg","regulation","perspective-taking","beta_0074",-8.34172428097716,0.588359951972961,0
"sub-MURIC219",13,3,"rating_alc_friend4",1,2.01146030426025,"Wine_X32.jpg","regulation","perspective-taking","beta_0083",-2.27098106125639,-0.014355382882059,0
"sub-MURIC219",13,4,"rating_alc_friend4",2,0.642160475254059,"Beer9.jpg","regulation","perspective-taking","beta_0068",1.95130697319134,-0.639634728431702,0
"sub-MURIC219",15,1,"rating_alc_friend4",1,1.73496699333191,"shutterstock_194729426.jpg","regulation","perspective-taking","beta_0085",6.60865932901721,0.251400589942932,0
"sub-MURIC219",15,2,"rating_alc_friend4",1,0.419176697731018,"Wine_X33.jpg","regulation","perspective-taking","beta_0084",-1.04826448477553,0.097438588738441,0
"sub-MURIC219",15,3,"rating_alc_friend4",2,0.757452785968781,"Beer_X38.jpg","regulation","perspective-taking","beta_0070",15.3007461218413,0.076221339404583,0
"sub-MURIC219",15,4,"rating_alc_friend4",1,0.53767728805542,"shutterstock_54126199.jpg","regulation","perspective-taking","beta_0086",-2.58446191370555,-0.059949524700642,0
"sub-MURIC219",16,1,"rating_alc_react",2,0.403053402900696,"Beer_X36.jpg","reactivity","perspective-taking","beta_0069",-3.37024978965126,-0.962596118450165,0
"sub-MURIC219",16,2,"rating_alc_react",1,0.51191657781601,"Wine5.jpg","reactivity","perspective-taking","beta_0081",-11.2225412163066,0.933470547199249,0
"sub-MURIC219",16,3,"rating_alc_react",3,0.575042724609375,"Liquor_X40.jpg","reactivity","perspective-taking","beta_0075",10.2393718430665,0.43166908621788,0
"sub-MURIC219",16,4,"rating_alc_react",2,0.655176103115082,"Beer7.jpg","reactivity","perspective-taking","beta_0067",6.82522870487889,-0.174450039863586,0
"sub-MURIC219",21,1,"rating_alc_friend4",2,0.553764224052429,"Wine22.jpg","regulation","perspective-taking","beta_0113",6.10751805030876,1.04656875133514,0
"sub-MURIC219",21,2,"rating_alc_friend4",2,0.50627464056015,"Beer_X37.jpg","regulation","perspective-taking","beta_0101",5.72149118156805,-0.177789568901062,0
"sub-MURIC219",21,3,"rating_alc_friend4",2,0.564534068107605,"Beer22.jpg","regulation","perspective-taking","beta_0097",-3.06059801837932,0.178243815898895,0
"sub-MURIC219",21,4,"rating_alc_friend4",1,2.72184729576111,"Wine18.jpg","regulation","perspective-taking","beta_0112",0.956743015426478,-0.175160765647888,0
"sub-MURIC219",22,1,"rating_alc_react",2,0.672009527683258,"shutterstock_219740071.jpg","reactivity","perspective-taking","beta_0115",12.3941376068917,-0.149678304791451,0
"sub-MURIC219",22,2,"rating_alc_react",3,2.21036100387573,"shutterstock_489452248.jpg","reactivity","perspective-taking","beta_0117",9.37066943910673,0.15833243727684,0
"sub-MURIC219",22,3,"rating_alc_react",2,2.4709894657135,"Wine_X31.jpg","reactivity","perspective-taking","beta_0114",-17.0993463249844,-0.16281059384346,0
"sub-MURIC219",22,4,"rating_alc_react",2,0.861025810241699,"Beer_X31.jpg","reactivity","perspective-taking","beta_0098",-7.56162419008297,-0.206226378679276,0
"sub-MURIC219",23,1,"rating_alc_react",2,0.572833180427551,"shutterstock_354506048.jpg","reactivity","perspective-taking","beta_0116",-9.08504362668484,1.38216638565063,0
"sub-MURIC219",23,2,"rating_alc_react",3,0.394268214702606,"Liquor10.jpg","reactivity","perspective-taking","beta_0102",-2.62596390661259,0.398354828357697,0
"sub-MURIC219",23,3,"rating_alc_react",2,0.594211220741272,"Beer16.jpg","reactivity","perspective-taking","beta_0095",0.25681857027906,-0.661501467227936,0
"sub-MURIC219",23,4,"rating_alc_react",2,0.50547331571579,"Beer_X33.jpg","reactivity","perspective-taking","beta_0100",-0.087506768489661,0.173781156539917,0
"sub-MURIC224",1,1,"rating_alc_react",2,1.62304842472076,"Wine29.jpg","reactivity","mindful attention","beta_0020",-14.3855813675044,0.395771086215973,0
"sub-MURIC224",1,2,"rating_alc_react",1,0.808201313018799,"Beer19.jpg","reactivity","mindful attention","beta_0002",17.2291890234049,0.580437541007996,0
"sub-MURIC224",1,3,"rating_alc_react",3,0.795208990573883,"Beer24.jpg","reactivity","mindful attention","beta_0003",7.69456629643097,0.386973083019257,0
"sub-MURIC224",1,4,"rating_alc_react",3,1.02956652641296,"Liquor18.jpg","reactivity","mindful attention","beta_0009",-11.6862772961392,0.581044495105743,0
"sub-MURIC224",2,1,"rating_alc_mindful",1,2.08697700500488,"Beer29.jpg","regulation","mindful attention","beta_0004",21.3166945819783,0.123371735215187,0
"sub-MURIC224",2,2,"rating_alc_mindful",1,0.938281774520874,"shutterstock_747693556.jpg","regulation","mindful attention","beta_0024",-13.7462390595524,0.971982955932617,0
"sub-MURIC224",2,3,"rating_alc_mindful",1,0.767634391784668,"Wine9.jpg","regulation","mindful attention","beta_0022",-19.4646578566927,0.458830595016479,0
"sub-MURIC224",2,4,"rating_alc_mindful",1,0.758654594421387,"Beer6.jpg","regulation","mindful attention","beta_0005",-4.7059864174208,0.001589302089997,0
"sub-MURIC224",3,1,"rating_alc_react",1,0.591847598552704,"Liquor19.jpg","reactivity","mindful attention","beta_0010",13.9396083255719,0.451574921607971,0
"sub-MURIC224",3,2,"rating_alc_react",1,0.762861013412476,"Wine7.jpg","reactivity","mindful attention","beta_0021",3.67825237332791,0.228646412491798,0
"sub-MURIC224",3,3,"rating_alc_react",1,1.11287999153137,"Beer_X34.jpg","reactivity","mindful attention","beta_0006",-19.4390963322167,0.497114837169647,0
"sub-MURIC224",3,4,"rating_alc_react",1,0.746262669563293,"Liquor_X36.jpg","reactivity","mindful attention","beta_0011",-10.1910110596956,-0.051868099719286,0
"sub-MURIC224",6,1,"rating_alc_mindful",1,1.02371490001678,"shutterstock_93461314.jpg","regulation","mindful attention","beta_0025",-0.091298968809165,0.49278312921524,0
"sub-MURIC224",6,2,"rating_alc_mindful",1,0.617565214633942,"Liquor_X42.jpg","regulation","mindful attention","beta_0013",7.47176745725304,-0.159018248319626,0
"sub-MURIC224",6,3,"rating_alc_mindful",2,0.862259387969971,"shutterstock_650326123.jpg","regulation","mindful attention","beta_0023",-21.0117781146912,0.182130634784698,0
"sub-MURIC224",6,4,"rating_alc_mindful",1,1.32801413536072,"Liquor_X37.jpg","regulation","mindful attention","beta_0012",32.8915840752812,-0.208042338490486,0
"sub-MURIC224",8,1,"rating_alc_mindful",1,0.736737787723541,"shutterstock_531124957.jpg","regulation","mindful attention","beta_0055",-2.57117185944597,0.561185479164124,0
"sub-MURIC224",8,2,"rating_alc_mindful",1,0.770657360553741,"Liquor26.jpg","regulation","mindful attention","beta_0042",-5.13421061350486,-0.041108246892691,0
"sub-MURIC224",8,3,"rating_alc_mindful",1,0.650912165641785,"Wine10.jpg","regulation","mindful attention","beta_0048",3.78551673172691,-0.545634269714355,0
"sub-MURIC224",8,4,"rating_alc_mindful",1,0.601599931716919,"Wine16.jpg","regulation","mindful attention","beta_0049",34.6246924278435,0.519150614738464,0
"sub-MURIC224",9,1,"rating_alc_react",2,0.632179141044617,"shutterstock_219740071.jpg","reactivity","mindful attention","beta_0052",5.32585536603805,0.859266459941864,0
"sub-MURIC224",9,2,"rating_alc_react",1,0.910843372344971,"Wine_X31.jpg","reactivity","mindful attention","beta_0051",-11.0680465374412,0.395902007818222,0
"sub-MURIC224",9,3,"rating_alc_react",4,0.99487841129303,"shutterstock_489452248.jpg","reactivity","mindful attention","beta_0054",-22.2835581961134,0.532840311527252,0
"sub-MURIC224",9,4,"rating_alc_react",1,0.663299024105072,"Beer_X31.jpg","reactivity","mindful attention","beta_0036",-13.8252274262652,0.179966181516647,0
"sub-MURIC224",10,1,"rating_alc_react",1,0.82459431886673,"shutterstock_354506048.jpg","reactivity","mindful attention","beta_0053",-36.6368103490622,0.41204822063446,0
"sub-MURIC224",10,2,"rating_alc_react",1,0.745843768119812,"Beer16.jpg","reactivity","mindful attention","beta_0035",4.10207966471165,0.431407481431961,0
"sub-MURIC224",10,3,"rating_alc_react",3,0.996898114681244,"Liquor10.jpg","reactivity","mindful attention","beta_0041",3.3302672146906,1.19122052192688,0
"sub-MURIC224",10,4,"rating_alc_react",1,0.61250901222229,"Beer_X33.jpg","reactivity","mindful attention","beta_0037",7.02966469478568,0.678674161434174,0
"sub-MURIC224",12,1,"rating_alc_mindful",1,1.52329480648041,"Beer14.jpg","regulation","mindful attention","beta_0034",-12.2181733171756,0.906750679016113,0
"sub-MURIC224",12,2,"rating_alc_mindful",1,0.805182754993439,"shutterstock_59587495.jpg","regulation","mindful attention","beta_0056",-3.70235493844726,0.039006158709526,0
"sub-MURIC224",12,3,"rating_alc_mindful",1,0.624261200428009,"Wine8.jpg","regulation","mindful attention","beta_0050",28.4330444480147,0.560983836650848,0
"sub-MURIC224",12,4,"rating_alc_mindful",1,0.907909393310547,"Beer1.jpg","regulation","mindful attention","beta_0033",4.14609014980499,0.450052469968796,0
"sub-MURIC224",15,1,"rating_alc_mindful",2,0.728186905384064,"Beer20.jpg","regulation","mindful attention","beta_0064",-3.51106078896039,-0.286432594060898,0
"sub-MURIC224",15,2,"rating_alc_mindful",3,0.462705165147781,"Liquor8.jpg","regulation","mindful attention","beta_0071",28.3848203326278,-0.058681678026915,0
"sub-MURIC224",15,3,"rating_alc_mindful",2,1.75764238834381,"Liquor5.jpg","regulation","mindful attention","beta_0070",20.1256184227702,-0.406944453716278,0
"sub-MURIC224",15,4,"rating_alc_mindful",1,0.579218506813049,"Beer_X32.jpg","regulation","mindful attention","beta_0066",15.6592225738062,0.343302816152573,0
"sub-MURIC224",16,1,"rating_alc_react",1,0.509609580039978,"Wine24.jpg","reactivity","mindful attention","beta_0083",-21.2528507353992,0.66107314825058,0
"sub-MURIC224",16,2,"rating_alc_react",2,0.559083878993988,"shutterstock_186172556.jpg","reactivity","mindful attention","beta_0086",-39.4632186213507,0.574766516685486,0
"sub-MURIC224",16,3,"rating_alc_react",2,0.696538805961609,"Liquor_X30.jpg","reactivity","mindful attention","beta_0072",7.956584970589,1.33838760852814,0
"sub-MURIC224",16,4,"rating_alc_react",1,0.591396331787109,"shutterstock_506086420.jpg","reactivity","mindful attention","beta_0087",-2.88832470270471,-0.063631452620029,0
"sub-MURIC224",17,1,"rating_alc_react",1,0.686965346336365,"Wine22.jpg","reactivity","mindful attention","beta_0082",-0.380293787586988,0.580815374851227,0
"sub-MURIC224",17,2,"rating_alc_react",2,1.05448293685913,"Beer22.jpg","reactivity","mindful attention","beta_0065",-5.92737233537554,0.135983422398567,0
"sub-MURIC224",17,3,"rating_alc_react",2,0.488565534353256,"Beer_X37.jpg","reactivity","mindful attention","beta_0067",-8.51436035034087,0.441433787345886,0
"sub-MURIC224",17,4,"rating_alc_react",1,0.557143449783325,"Wine18.jpg","reactivity","mindful attention","beta_0081",-8.90389623620747,-0.253214150667191,0
"sub-MURIC224",18,1,"rating_alc_mindful",1,1.0196179151535,"Wine6.jpg","regulation","mindful attention","beta_0084",-4.87086598351971,-0.210543036460876,0
"sub-MURIC224",18,2,"rating_alc_mindful",1,0.523373126983643,"Wine14.jpg","regulation","mindful attention","beta_0080",9.14888164892557,0.228954344987869,0
"sub-MURIC224",18,3,"rating_alc_mindful",1,0.645800054073334,"Wine_X36.jpg","regulation","mindful attention","beta_0085",9.30243386049734,1.14301681518555,0
"sub-MURIC224",18,4,"rating_alc_mindful",1,0.573563992977142,"Liquor25.jpg","regulation","mindful attention","beta_0069",5.70120868982571,0.785353660583496,0
"sub-MURIC224",19,1,"rating_alc_react",1,0.87894868850708,"Liquor_X39.jpg","reactivity","mindful attention",NA,NA,NA,NA
"sub-MURIC224",19,2,"rating_alc_react",3,0.595923960208893,"shutterstock_629011190.jpg","reactivity","mindful attention","beta_0118",-2.68980881149304,0.29725393652916,0
"sub-MURIC224",19,3,"rating_alc_react",1,0.837440252304077,"Beer27.jpg","reactivity","mindful attention","beta_0096",-11.0160057221018,-0.066934831440449,0
"sub-MURIC224",19,4,"rating_alc_react",1,0.740324378013611,"Wine19.jpg","reactivity","mindful attention","beta_0114",18.4695943694714,-0.315002202987671,0
"sub-MURIC224",21,1,"rating_alc_react",1,1.26239371299744,"Beer_X36.jpg","reactivity","mindful attention","beta_0100",5.43670393416455,0.502468109130859,0
"sub-MURIC224",21,2,"rating_alc_react",2,0.758267998695374,"Liquor_X40.jpg","reactivity","mindful attention","beta_0109",-24.0426558467709,0.29137310385704,0
"sub-MURIC224",21,3,"rating_alc_react",1,0.62990140914917,"Wine5.jpg","reactivity","mindful attention","beta_0115",-18.7953519002749,0.40994781255722,0
"sub-MURIC224",21,4,"rating_alc_react",1,0.563397645950317,"Beer7.jpg","reactivity","mindful attention","beta_0098",-5.44688105471224,0.040593445301056,0
"sub-MURIC224",22,1,"rating_alc_mindful",1,0.795766472816467,"shutterstock_518689462.jpg","regulation","mindful attention","beta_0117",28.8241244627466,-0.055817153304815,0
"sub-MURIC224",22,2,"rating_alc_mindful",1,0.829520225524902,"shutterstock_227045194.jpg","regulation","mindful attention","beta_0116",6.12986326027199,-0.38696226477623,0
"sub-MURIC224",22,3,"rating_alc_mindful",1,0.778012990951538,"Beer30.jpg","regulation","mindful attention","beta_0097",14.4848900312012,-0.481415539979935,0
"sub-MURIC224",22,4,"rating_alc_mindful",1,0.753454387187958,"Liquor16.jpg","regulation","mindful attention","beta_0105",14.007272700969,-0.647989511489868,0
"sub-MURIC224",23,1,"rating_alc_mindful",1,1.04020059108734,"Beer_X35.jpg","regulation","mindful attention","beta_0099",-0.712477466883245,-0.678046405315399,0
"sub-MURIC224",23,2,"rating_alc_mindful",1,0.800720393657684,"Beer13.jpg","regulation","mindful attention","beta_0095",7.9622432541313,-0.330505341291428,0
"sub-MURIC224",23,3,"rating_alc_mindful",1,0.524152398109436,"Liquor_X32.jpg","regulation","mindful attention","beta_0107",-5.26629955607895,0.051943618804216,0
"sub-MURIC224",23,4,"rating_alc_mindful",1,0.657184422016144,"Liquor_X31.jpg","regulation","mindful attention","beta_0106",-6.0092739892759,-0.738702595233917,0
"sub-MURIC228",1,1,"rating_alc_react",4,1.01990866661072,"Wine16.jpg","reactivity","control","beta_0020",-2.92855762782225,-0.399818778038025,0
"sub-MURIC228",1,2,"rating_alc_react",3,1.11267614364624,"Wine10.jpg","reactivity","control","beta_0019",-2.65507024105433,-0.11431123316288,0
"sub-MURIC228",1,3,"rating_alc_react",3,1.34613108634949,"shutterstock_531124957.jpg","reactivity","control","beta_0025",11.7390945873497,-0.589916884899139,0
"sub-MURIC228",1,4,"rating_alc_react",3,0.977499306201935,"Liquor26.jpg","reactivity","control","beta_0011",0.944524144153199,0.133670300245285,0
"sub-MURIC228",2,1,"rating_alc_react",2,1.27927458286285,"Liquor18.jpg","reactivity","control","beta_0010",3.90821430875818,-0.157594710588455,0
"sub-MURIC228",2,2,"rating_alc_react",3,0.662960529327393,"Beer24.jpg","reactivity","control","beta_0003",-7.57954272208372,0.274438381195068,0
"sub-MURIC228",2,3,"rating_alc_react",4,0.629058659076691,"Wine29.jpg","reactivity","control","beta_0022",-15.4867035344907,0.325422048568726,0
"sub-MURIC228",2,4,"rating_alc_react",3,0.741555035114288,"Beer19.jpg","reactivity","control","beta_0002",-9.92418211652789,0.044845845550299,0
"sub-MURIC228",4,1,"rating_alc_react",2,0.59099406003952,"shutterstock_506086420.jpg","reactivity","control","beta_0024",-2.2086748206799,-0.769051313400269,0
"sub-MURIC228",4,2,"rating_alc_react",2,0.873346626758575,"Liquor_X30.jpg","reactivity","control","beta_0012",-6.01430322335164,0.225388705730438,0
"sub-MURIC228",4,3,"rating_alc_react",4,0.661993145942688,"Wine24.jpg","reactivity","control","beta_0021",-19.2892469485155,-0.989889085292816,0
"sub-MURIC228",4,4,"rating_alc_react",2,0.67921370267868,"shutterstock_186172556.jpg","reactivity","control","beta_0023",-0.380259117511353,-0.455568641424179,0
"sub-MURIC228",8,1,"rating_alc_react",3,0.764139652252197,"Liquor25.jpg","reactivity","control","beta_0039",-10.0853012171125,-0.021854603663087,0
"sub-MURIC228",8,2,"rating_alc_react",2,0.608078122138977,"Wine_X36.jpg","reactivity","control","beta_0054",-15.0972805658354,0.031763713806868,0
"sub-MURIC228",8,3,"rating_alc_react",3,0.691022038459778,"Wine6.jpg","reactivity","control","beta_0052",-11.7612780533528,-0.373180359601974,0
"sub-MURIC228",8,4,"rating_alc_react",4,0.973477900028229,"Wine14.jpg","reactivity","control","beta_0049",2.89795525012585,0.187804386019707,0
"sub-MURIC228",9,1,"rating_alc_react",4,0.646180987358093,"Wine18.jpg","reactivity","control","beta_0050",-3.92636581205832,-0.472404718399048,0
"sub-MURIC228",9,2,"rating_alc_react",3,0.701209127902985,"Beer_X37.jpg","reactivity","control","beta_0035",-39.143335206497,-1.5741662979126,0
"sub-MURIC228",9,3,"rating_alc_react",2,0.847213864326477,"Wine22.jpg","reactivity","control","beta_0051",-9.92997914202121,0.267823219299316,0
"sub-MURIC228",9,4,"rating_alc_react",2,0.841882586479187,"Beer22.jpg","reactivity","control","beta_0033",-7.23918259214235,-0.355141133069992,0
"sub-MURIC228",12,1,"rating_alc_react",2,1.32865989208221,"Beer_X31.jpg","reactivity","control","beta_0034",-9.38312191870142,-0.270318001508713,0
"sub-MURIC228",12,2,"rating_alc_react",3,0.841605424880981,"shutterstock_489452248.jpg","reactivity","control","beta_0056",4.19946720984739,-0.372538834810257,0
"sub-MURIC228",12,3,"rating_alc_react",2,0.808122932910919,"shutterstock_219740071.jpg","reactivity","control","beta_0055",-7.20178104931278,-0.489637404680252,0
"sub-MURIC228",12,4,"rating_alc_react",4,0.589361369609833,"Wine_X31.jpg","reactivity","control","beta_0053",-12.0759755280888,-0.322866499423981,0
"sub-MURIC228",13,1,"rating_alc_react",3,1.01278448104858,"Wine19.jpg","reactivity","control","beta_0085",-3.01969771060793,-0.235375449061394,0
"sub-MURIC228",13,2,"rating_alc_react",3,0.875531911849976,"Beer27.jpg","reactivity","control","beta_0065",-8.5308283658459,-0.437251389026642,0
"sub-MURIC228",13,3,"rating_alc_react",2,1.52895605564117,"Liquor_X39.jpg","reactivity","control","beta_0076",6.73494456940487,-0.283399760723114,0
"sub-MURIC228",13,4,"rating_alc_react",1,0.996164083480835,"shutterstock_629011190.jpg","reactivity","control","beta_0087",-2.33353535578659,-1.3446044921875,0
"sub-MURIC228",14,1,"rating_alc_react",3,0.700852572917938,"Beer_X32.jpg","reactivity","control","beta_0066",0.394192930906629,-0.407479465007782,0
"sub-MURIC228",14,2,"rating_alc_react",3,0.554270684719086,"Liquor5.jpg","reactivity","control","beta_0073",-3.13970981076986,-0.605367124080658,0
"sub-MURIC228",14,3,"rating_alc_react",3,0.800104856491089,"Beer20.jpg","reactivity","control","beta_0064",-0.919447959393609,-0.296683341264725,0
"sub-MURIC228",14,4,"rating_alc_react",2,0.622108519077301,"Liquor8.jpg","reactivity","control","beta_0074",9.78452033454987,-0.073665857315063,0
"sub-MURIC228",15,1,"rating_alc_react",4,0.95289134979248,"Liquor_X36.jpg","reactivity","control","beta_0075",-7.82606324924353,-0.465778440237045,0
"sub-MURIC228",15,2,"rating_alc_react",2,1.72994530200958,"Beer_X34.jpg","reactivity","control","beta_0067",-1.22526475912938,-0.549238681793213,0
"sub-MURIC228",15,3,"rating_alc_react",2,1.0413384437561,"Liquor19.jpg","reactivity","control","beta_0072",-13.0989582071019,-0.067312717437744,0
"sub-MURIC228",15,4,"rating_alc_react",2,1.56362152099609,"Wine7.jpg","reactivity","control","beta_0086",-16.689069773583,-0.50193977355957,0
"sub-MURIC228",20,1,"rating_alc_react",3,0.671007096767426,"Beer6.jpg","reactivity","control","beta_0097",4.70564259724391,-0.025340450927615,0
"sub-MURIC228",20,2,"rating_alc_react",3,1.05700469017029,"Wine9.jpg","reactivity","control","beta_0116",6.60261133779214,-1.14684915542602,0
"sub-MURIC228",20,3,"rating_alc_react",2,1.10140597820282,"Beer29.jpg","reactivity","control","beta_0096",10.7232702611378,0.70814311504364,0
"sub-MURIC228",20,4,"rating_alc_react",3,1.56817626953125,"shutterstock_747693556.jpg","reactivity","control","beta_0118",23.5763503149805,-0.117966942489147,0
"sub-MURIC228",21,1,"rating_alc_react",3,0.661537170410156,"Beer_X33.jpg","reactivity","control","beta_0099",0.109117121681592,0.330570697784424,0
"sub-MURIC228",21,2,"rating_alc_react",4,0.677502155303955,"Liquor10.jpg","reactivity","control","beta_0104",-7.27829868826912,1.01772511005402,0
"sub-MURIC228",21,3,"rating_alc_react",2,0.713603973388672,"shutterstock_354506048.jpg","reactivity","control","beta_0117",-5.08617348860573,0.268947333097458,0
"sub-MURIC228",21,4,"rating_alc_react",3,0.646039366722107,"Beer16.jpg","reactivity","control","beta_0095",-3.31655974510043,0.35265251994133,0
"sub-MURIC228",23,1,"rating_alc_react",2,0.930923998355865,"Beer7.jpg","reactivity","control","beta_0098",-2.67460747811751,0.780647873878479,0
"sub-MURIC228",23,2,"rating_alc_react",3,0.666000068187714,"Wine5.jpg","reactivity","control","beta_0115",-4.43208884170227,0.761304378509521,0
"sub-MURIC228",23,3,"rating_alc_react",3,0.888427019119263,"Beer_X36.jpg","reactivity","control","beta_0100",9.04959016141039,0.762388944625854,0
"sub-MURIC228",23,4,"rating_alc_react",3,0.755609691143036,"Liquor_X40.jpg","reactivity","control","beta_0105",2.93991376773843,-0.008159513585269,0
"sub-MURIC230",1,1,"rating_alc_mindful",1,0.617622375488281,"Wine18.jpg","regulation","mindful attention","beta_0017",-22.8438735414998,-1.88537847995758,0
